ALV-7004 or ALV-7004/FAST Data
Date :	"3/27/2010"
Time :	"10:48:40 AM"
Samplename : 	"BSA 1 g/l in YCl3 8.3mM"
SampMemo(0) : 	""
SampMemo(1) : 	""
SampMemo(2) : 	""
SampMemo(3) : 	""
SampMemo(4) : 	""
SampMemo(5) : 	""
SampMemo(6) : 	""
SampMemo(7) : 	""
SampMemo(8) : 	""
SampMemo(9) : 	""
Temperature [K] :	     295.66916
Viscosity [cp]  :	       0.94291
Refractive Index:	       1.33200
Wavelength [nm] :	     632.80000
Angle [°]       :	      70.00000
Duration [s]    :	        70
Runs            :	         1
Mode            :	"C-CH0/1+1/0"
MeanCR0 [kHz]   :	      58.82834
MeanCR1 [kHz]   :	      71.32091
MeanCR2 [kHz]   :	       0.00000
MeanCR3 [kHz]   :	       0.00000

"Correlation"
  3.12500E-006	  2.90346E-001	  3.31300E-001	 -1.00000E+000	 -1.00000E+000
  6.25000E-006	  2.60312E-001	  2.67957E-001	 -1.00000E+000	 -1.00000E+000
  9.37500E-006	  2.87615E-001	  2.74510E-001	 -1.00000E+000	 -1.00000E+000
  1.25000E-005	  3.12734E-001	  3.03997E-001	 -1.00000E+000	 -1.00000E+000
  1.56250E-005	  3.48228E-001	  3.48774E-001	 -1.00000E+000	 -1.00000E+000
  1.87500E-005	  3.03451E-001	  2.76694E-001	 -1.00000E+000	 -1.00000E+000
  2.18750E-005	  3.39491E-001	  3.58604E-001	 -1.00000E+000	 -1.00000E+000
  2.50000E-005	  3.49320E-001	  3.52051E-001	 -1.00000E+000	 -1.00000E+000
  2.81250E-005	  3.38945E-001	  4.05565E-001	 -1.00000E+000	 -1.00000E+000
  3.12500E-005	  3.55873E-001	  3.40037E-001	 -1.00000E+000	 -1.00000E+000
  3.43750E-005	  2.79424E-001	  3.13826E-001	 -1.00000E+000	 -1.00000E+000
  3.75000E-005	  2.90892E-001	  2.89800E-001	 -1.00000E+000	 -1.00000E+000
  4.06250E-005	  4.00650E-001	  4.09933E-001	 -1.00000E+000	  6.27797E-001
  4.37500E-005	  3.24748E-001	  3.22563E-001	 -1.00000E+000	  8.31384E-001
  4.68750E-005	  3.58604E-001	  3.05089E-001	 -1.00000E+000	 -1.98263E-001
  5.00000E-005	  3.28570E-001	  3.37307E-001	 -1.00000E+000	  1.27910E+000
  5.62500E-005	  3.24202E-001	  3.14372E-001	 -1.00000E+000	  6.48516E-001
  6.25000E-005	  3.02359E-001	  2.76148E-001	 -1.00000E+000	  6.09781E-001
  6.87500E-005	  3.08093E-001	  2.94168E-001	 -9.56307E-001	  7.03016E-001
  7.50000E-005	  3.12461E-001	  3.63518E-001	  9.15892E-001	  5.19247E-001
  8.12500E-005	  3.11096E-001	  3.13826E-001	  4.67041E-001	  4.81413E-001
  8.75000E-005	  3.28297E-001	  3.34031E-001	  4.42546E-001	  4.13400E-001
  9.37500E-005	  3.08912E-001	  3.23656E-001	  4.45195E-001	  4.61594E-001
  1.00000E-004	  3.09594E-001	  3.18468E-001	  3.91240E-001	  4.29164E-001
  1.12500E-004	  3.31164E-001	  3.41676E-001	  3.70055E-001	  4.02365E-001
  1.25000E-004	  3.14919E-001	  3.10823E-001	  3.53504E-001	  4.08896E-001
  1.37500E-004	  3.28297E-001	  3.37853E-001	  3.29010E-001	  3.73313E-001
  1.50000E-004	  3.15192E-001	  3.03997E-001	  3.51518E-001	  3.74214E-001
  1.62500E-004	  2.92120E-001	  2.85704E-001	  2.90612E-001	  3.64980E-001
  1.75000E-004	  3.24884E-001	  3.38126E-001	  2.99219E-001	  3.75790E-001
  1.87500E-004	  3.13690E-001	  3.42495E-001	  3.02198E-001	  3.74664E-001
  2.00000E-004	  3.06045E-001	  3.05226E-001	  3.24044E-001	  3.54959E-001
  2.25000E-004	  3.07410E-001	  3.15328E-001	  3.23217E-001	  3.54621E-001
  2.50000E-004	  2.98468E-001	  2.93486E-001	  3.13618E-001	  3.38068E-001
  2.75000E-004	  3.19151E-001	  3.05635E-001	  3.21065E-001	  3.35816E-001
  3.00000E-004	  3.11847E-001	  3.17103E-001	  3.21562E-001	  3.15998E-001
  3.25000E-004	  3.14372E-001	  3.13826E-001	  3.27024E-001	  3.59125E-001
  3.50000E-004	  3.21744E-001	  3.34167E-001	  3.20403E-001	  3.43473E-001
  3.75000E-004	  3.13349E-001	  3.18468E-001	  2.96240E-001	  3.23092E-001
  4.00000E-004	  3.17273E-001	  3.28707E-001	  3.06584E-001	  3.27990E-001
  4.50000E-004	  3.11471E-001	  3.17103E-001	  3.29258E-001	  3.27427E-001
  5.00000E-004	  3.15567E-001	  3.27068E-001	  3.12459E-001	  3.28441E-001
  5.50000E-004	  3.08741E-001	  3.19287E-001	  2.92929E-001	  3.11719E-001
  6.00000E-004	  2.98195E-001	  3.02632E-001	  3.09066E-001	  3.38687E-001
  6.50000E-004	  3.09355E-001	  3.04065E-001	  3.09645E-001	  3.30017E-001
  7.00000E-004	  3.11779E-001	  3.17990E-001	  3.13287E-001	  3.21065E-001
  7.50000E-004	  3.10140E-001	  3.08707E-001	  3.00377E-001	  3.30693E-001
  8.00000E-004	  3.08912E-001	  3.12120E-001	  2.98846E-001	  3.17265E-001
  9.00000E-004	  3.03673E-001	  3.06864E-001	  2.95702E-001	  3.18531E-001
  1.00000E-003	  3.12820E-001	  3.12018E-001	  3.04432E-001	  3.29229E-001
  1.10000E-003	  2.98468E-001	  2.98161E-001	  3.04101E-001	  3.17800E-001
  1.20000E-003	  3.05567E-001	  3.01847E-001	  3.01991E-001	  3.14844E-001
  1.30000E-003	  2.99287E-001	  2.94578E-001	  2.93550E-001	  3.10199E-001
  1.40000E-003	  3.02700E-001	  3.00823E-001	  3.02198E-001	  3.08397E-001
  1.50000E-003	  3.01335E-001	  3.00311E-001	  3.06087E-001	  3.11043E-001
  1.60000E-003	  2.96796E-001	  2.94441E-001	  2.95950E-001	  3.04794E-001
  1.80000E-003	  2.94185E-001	  2.95499E-001	  2.87509E-001	  3.05666E-001
  2.00000E-003	  2.93315E-001	  2.94936E-001	  2.83247E-001	  3.05892E-001
  2.20000E-003	  2.86259E-001	  2.83503E-001	  2.86495E-001	  3.04709E-001
  2.40000E-003	  2.89509E-001	  2.85312E-001	  2.98205E-001	  3.03133E-001
  2.60000E-003	  2.90388E-001	  2.92052E-001	  2.94812E-001	  3.01782E-001
  2.80000E-003	  2.87351E-001	  2.88554E-001	  2.93426E-001	  2.94420E-001
  3.00000E-003	  2.83554E-001	  2.85653E-001	  2.82296E-001	  2.94744E-001
  3.20000E-003	  2.82684E-001	  2.84996E-001	  2.84902E-001	  2.89057E-001
  3.60000E-003	  2.80725E-001	  2.83136E-001	  2.85430E-001	  2.92534E-001
  4.00000E-003	  2.80534E-001	  2.82453E-001	  2.77723E-001	  2.85869E-001
  4.40000E-003	  2.72586E-001	  2.74911E-001	  2.75955E-001	  2.79303E-001
  4.80000E-003	  2.71831E-001	  2.73674E-001	  2.62952E-001	  2.84082E-001
  5.20000E-003	  2.72304E-001	  2.71643E-001	  2.66231E-001	  2.76073E-001
  5.60000E-003	  2.68196E-001	  2.69476E-001	  2.67710E-001	  2.79972E-001
  6.00000E-003	  2.63921E-001	  2.63580E-001	  2.70814E-001	  2.70070E-001
  6.40000E-003	  2.61274E-001	  2.62876E-001	  2.66955E-001	  2.70309E-001
  7.20000E-003	  2.54210E-001	  2.55406E-001	  2.56570E-001	  2.63676E-001
  8.00000E-003	  2.48681E-001	  2.48649E-001	  2.50601E-001	  2.57300E-001
  8.80000E-003	  2.46560E-001	  2.44558E-001	  2.46293E-001	  2.53130E-001
  9.60000E-003	  2.39799E-001	  2.40641E-001	  2.40971E-001	  2.45364E-001
  1.04000E-002	  2.37350E-001	  2.37646E-001	  2.37847E-001	  2.41152E-001
  1.12000E-002	  2.28583E-001	  2.26704E-001	  2.27182E-001	  2.33632E-001
  1.20000E-002	  2.21578E-001	  2.20010E-001	  2.28325E-001	  2.34061E-001
  1.28000E-002	  2.17753E-001	  2.18366E-001	  2.24276E-001	  2.26132E-001
  1.44000E-002	  2.10744E-001	  2.09757E-001	  2.13423E-001	  2.14655E-001
  1.60000E-002	  2.00261E-001	  2.00621E-001	  2.05548E-001	  2.09493E-001
  1.76000E-002	  1.95167E-001	  1.95670E-001	  1.97754E-001	  1.96756E-001
  1.92000E-002	  1.86475E-001	  1.86652E-001	  1.85442E-001	  1.92043E-001
  2.08000E-002	  1.74851E-001	  1.74393E-001	  1.80707E-001	  1.81898E-001
  2.24000E-002	  1.70479E-001	  1.69182E-001	  1.69907E-001	  1.70754E-001
  2.40000E-002	  1.62937E-001	  1.59496E-001	  1.64958E-001	  1.68358E-001
  2.56000E-002	  1.57037E-001	  1.54975E-001	  1.59416E-001	  1.59540E-001
  2.88000E-002	  1.43541E-001	  1.44647E-001	  1.45425E-001	  1.44750E-001
  3.20000E-002	  1.30307E-001	  1.29959E-001	  1.33839E-001	  1.36740E-001
  3.52000E-002	  1.20962E-001	  1.21557E-001	  1.24485E-001	  1.24324E-001
  3.84000E-002	  1.10472E-001	  1.10750E-001	  1.13276E-001	  1.14408E-001
  4.16000E-002	  1.00817E-001	  1.01811E-001	  1.03525E-001	  1.05254E-001
  4.48000E-002	  9.45744E-002	  9.48925E-002	  9.66127E-002	  9.68980E-002
  4.80000E-002	  8.53815E-002	  8.53684E-002	  8.81551E-002	  8.89304E-002
  5.12000E-002	  7.84263E-002	  7.82528E-002	  8.03912E-002	  8.14325E-002
  5.76000E-002	  6.64449E-002	  6.65967E-002	  6.95803E-002	  6.95127E-002
  6.40000E-002	  5.69610E-002	  5.75229E-002	  5.97382E-002	  5.94239E-002
  7.04000E-002	  4.76692E-002	  4.76433E-002	  4.83877E-002	  4.92526E-002
  7.68000E-002	  4.11675E-002	  4.17014E-002	  4.04689E-002	  4.02254E-002
  8.32000E-002	  3.50089E-002	  3.57273E-002	  3.53092E-002	  3.56531E-002
  8.96000E-002	  2.92771E-002	  2.95668E-002	  2.91976E-002	  2.99140E-002
  9.60000E-002	  2.43597E-002	  2.47738E-002	  2.48750E-002	  2.50349E-002
  1.02400E-001	  2.17111E-002	  2.12043E-002	  2.14646E-002	  2.23221E-002
  1.15200E-001	  1.47303E-002	  1.41969E-002	  1.55800E-002	  1.52411E-002
  1.28000E-001	  1.11319E-002	  1.10659E-002	  1.20061E-002	  1.19068E-002
  1.40800E-001	  8.41864E-003	  8.31985E-003	  8.13938E-003	  8.60849E-003
  1.53600E-001	  6.20555E-003	  5.64046E-003	  7.12824E-003	  6.11938E-003
  1.66400E-001	  4.68348E-003	  4.20278E-003	  3.97910E-003	  4.31992E-003
  1.79200E-001	  3.89248E-003	  3.77217E-003	  3.86629E-003	  3.30163E-003
  1.92000E-001	  2.66860E-003	  2.90674E-003	  1.91213E-003	  1.49099E-003
  2.04800E-001	  2.18149E-003	  2.19131E-003	  1.65717E-003	  1.53296E-003
  2.30400E-001	  9.70970E-004	  1.16828E-003	  1.06367E-003	  7.84886E-004
  2.56000E-001	  5.21627E-004	  4.02646E-004	  2.76223E-004	  5.41533E-004
  2.81600E-001	  2.78245E-004	  6.80579E-006	  1.03304E-003	  2.72048E-004
  3.07200E-001	  3.89852E-004	  1.84448E-005	  6.82954E-005	  7.15608E-004
  3.32800E-001	  7.26189E-004	  1.48415E-003	 -7.52528E-004	  5.83301E-004
  3.58400E-001	  8.53096E-004	  1.54712E-003	 -5.78619E-004	  1.00478E-003
  3.84000E-001	  9.87256E-005	  3.14477E-004	 -3.41351E-004	  3.61225E-004
  4.09600E-001	  4.84551E-004	  5.73849E-004	 -2.78903E-004	  3.29058E-004
  4.60800E-001	 -2.04130E-004	  9.09117E-005	  1.03257E-005	 -1.08051E-004
  5.12000E-001	 -4.13320E-004	 -2.48139E-004	  2.54418E-005	 -7.10086E-004
  5.63200E-001	  3.83149E-004	  5.01168E-004	  7.73129E-004	  3.20230E-004
  6.14400E-001	  1.05762E-004	  4.16799E-004	 -8.09878E-005	  3.72717E-004
  6.65600E-001	 -1.78847E-004	 -3.23730E-004	 -1.29720E-004	 -3.44292E-004
  7.16800E-001	  2.63009E-004	  7.04964E-004	  4.94567E-004	  3.90567E-004
  7.68000E-001	 -2.36541E-004	  5.32235E-005	  4.73422E-005	  9.37566E-005
  8.19200E-001	 -5.37133E-004	 -4.66646E-004	 -3.67601E-004	 -4.63473E-004
  9.21600E-001	  8.86764E-005	  1.94313E-004	 -1.60466E-004	  3.32033E-004
  1.02400E+000	  3.31546E-004	  4.13790E-004	 -9.23876E-005	  3.45696E-004
  1.12640E+000	 -1.70753E-004	 -3.98562E-004	  1.21666E-004	 -1.44657E-004
  1.22880E+000	  1.41069E-004	  6.27668E-006	  8.94248E-005	  3.69938E-004
  1.33120E+000	 -1.02051E-004	 -1.83778E-004	 -2.50063E-004	 -1.62116E-004
  1.43360E+000	  3.16088E-004	  1.88367E-004	 -1.08538E-004	  3.10251E-004
  1.53600E+000	  2.57435E-004	  4.17888E-004	  2.09135E-004	  4.32706E-004
  1.63840E+000	  1.58528E-005	  1.09998E-004	 -1.54479E-004	  1.26519E-004
  1.84320E+000	 -4.98325E-005	 -2.44444E-005	 -2.66745E-005	 -5.19629E-005
  2.04800E+000	 -3.92749E-004	 -4.35883E-004	 -1.76724E-004	 -1.14386E-004
  2.25280E+000	 -9.89271E-005	  1.45601E-005	 -2.72931E-004	 -4.65811E-004
  2.45760E+000	  2.61287E-004	  3.49476E-005	  6.04651E-004	  3.15134E-004
  2.66240E+000	 -4.08395E-005	 -2.66087E-004	  1.95449E-004	 -4.97972E-005
  2.86720E+000	  3.42931E-005	  1.39941E-005	 -6.20644E-004	  2.47546E-004
  3.07200E+000	  1.55712E-005	  1.71734E-004	 -1.05862E-004	 -1.10189E-004
  3.27680E+000	  1.99876E-004	  2.74671E-004	  2.13760E-004	 -5.74469E-005
  3.68640E+000	  1.55747E-004	  4.88212E-005	 -3.19287E-005	  1.25976E-004
  4.09600E+000	 -1.35069E-004	 -5.69003E-005	 -1.18064E-004	 -2.44351E-004
  4.50560E+000	  2.88398E-005	  2.25747E-004	  6.73478E-005	 -1.02873E-004
  4.91520E+000	 -2.04325E-004	  4.03676E-005	 -5.44432E-005	 -6.29766E-005
  5.32480E+000	  3.67139E-005	 -9.98999E-005	  3.47318E-005	  2.72650E-004
  5.73440E+000	  1.42662E-004	  1.44987E-004	  1.59803E-005	  9.99664E-005
  6.14400E+000	 -1.66420E-004	 -2.39468E-004	 -7.03669E-005	 -2.08344E-004
  6.55360E+000	 -2.70489E-004	 -3.92188E-004	 -1.74165E-004	 -3.24336E-004
  7.37280E+000	  7.50595E-006	  6.45512E-005	  1.22739E-004	 -7.77740E-007
  8.19200E+000	  3.64003E-005	 -4.31123E-005	  3.07590E-005	 -5.15265E-005
  9.01120E+000	 -9.36989E-005	 -1.09051E-004	 -3.88033E-005	 -4.59591E-006
  9.83040E+000	 -1.44250E-004	  4.57873E-005	 -1.75578E-004	 -3.08414E-004
  1.06496E+001	 -3.26564E-004	 -2.09351E-004	 -3.96385E-004	 -1.56566E-004
  1.14688E+001	 -8.90320E-005	 -6.15277E-005	 -1.47639E-004	 -1.32609E-004
  1.22880E+001	  7.19096E-005	  8.32905E-005	 -3.40548E-005	  2.83861E-004
  1.31072E+001	  2.59965E-004	  1.43548E-004	  3.07685E-004	  1.30187E-004
  1.47456E+001	 -1.84798E-005	 -2.38490E-005	  6.11655E-005	  5.94835E-005
  1.63840E+001	 -7.51770E-005	 -5.16967E-005	 -2.11441E-004	 -1.32999E-005
  1.80224E+001	  1.26295E-004	  1.38448E-004	  8.64799E-005	 -7.00828E-005
  1.96608E+001	  1.19707E-004	  1.16635E-004	  2.14657E-004	  1.05253E-004
  2.12992E+001	 -4.19478E-005	 -5.79530E-005	  1.08906E-004	 -2.53795E-004
  2.29376E+001	 -1.40124E-004	 -2.01495E-004	 -6.19516E-005	 -1.27446E-004
  2.45760E+001	  7.17662E-005	  7.77423E-005	  1.60543E-004	 -9.98647E-005
  2.62144E+001	  7.95790E-006	  1.81341E-005	  6.29082E-005	  4.11743E-005
  2.94912E+001	  2.03650E-005	  9.77717E-005	 -2.33485E-005	  7.17478E-005
  3.27680E+001	  4.53089E-005	 -6.31704E-005	 -4.38996E-005	  1.09272E-004
  3.60448E+001	  7.04995E-005	  4.23656E-005	  1.24055E-004	  1.21257E-005
  3.93216E+001	  5.56065E-005	  6.93538E-005	  8.40152E-005	 -1.23221E-004
  4.25984E+001	  8.61266E-005	  1.01654E-004	  1.65158E-004	  1.44993E-004
  4.58752E+001	 -1.80040E-005	 -4.23228E-005	 -1.86564E-006	 -3.67045E-005
  4.91520E+001	  8.96999E-005	  1.28235E-004	  7.58445E-005	  1.26930E-004
  5.24288E+001	  6.98647E-005	  8.93892E-005	  3.64336E-005	  3.35469E-005
  5.89824E+001	  1.55153E-005	  1.70071E-005	  6.09070E-005	 -6.71973E-005
  6.55360E+001	 -7.86978E-005	 -1.56756E-004	 -8.30412E-005	 -8.70386E-005
  7.20896E+001	  1.72836E-005	  9.65756E-005	  1.79332E-005	  9.01439E-006
  7.86432E+001	  6.15677E-005	  2.05830E-005	  7.58727E-005	 -3.00345E-005
  8.51968E+001	  1.54877E-005	 -1.36286E-005	 -5.55616E-005	  3.32353E-005
  9.17504E+001	  7.04529E-005	  1.06100E-004	  1.27879E-004	  7.65975E-005
  9.83040E+001	 -2.22449E-005	 -2.29044E-005	 -6.43498E-005	  2.99117E-005
  1.04858E+002	 -8.15639E-006	 -4.79816E-005	 -2.42130E-005	  2.17405E-005
  1.17965E+002	 -3.56847E-005	 -5.90516E-005	 -6.57205E-005	 -1.23527E-005
  1.31072E+002	 -3.02487E-005	 -7.80463E-005	 -4.01652E-005	 -1.58407E-005
  1.44179E+002	  2.92942E-005	  3.11747E-005	  3.98022E-005	  2.69390E-006
  1.57286E+002	 -7.02135E-005	 -6.32364E-005	 -8.54171E-005	 -3.48956E-005
  1.70394E+002	  1.04922E-005	  3.43795E-005	  1.78195E-005	  7.21675E-006
  1.83501E+002	  7.58894E-005	  6.02042E-005	  9.27047E-005	  6.01564E-005
  1.96608E+002	  2.99382E-005	  5.84589E-005	  3.11176E-005	  1.10537E-005
  2.09715E+002	  2.38911E-006	  1.55966E-005	 -1.27176E-005	  7.00574E-006
  2.35930E+002	  2.05935E-005	  2.79988E-005	  2.25510E-005	 -1.85243E-006
  2.62144E+002	  2.75661E-005	  3.44563E-005	  6.84378E-005	  2.37701E-006
  2.88358E+002	 -2.04912E-005	 -9.58502E-006	 -2.15073E-005	 -1.82436E-005
  3.14573E+002	 -5.50583E-006	  2.78193E-005	  6.32399E-006	  1.19354E-006
  3.40787E+002	 -6.58035E-006	 -1.38898E-006	 -2.56459E-005	 -1.43032E-005
  3.67002E+002	 -1.56037E-005	 -1.39747E-005	 -1.41307E-005	 -1.76239E-005
  3.93216E+002	 -1.02857E-005	 -3.00060E-005	 -1.89423E-005	 -6.84904E-006
  4.19430E+002	 -5.34699E-006	 -5.22093E-006	 -2.50553E-005	 -9.60316E-006
  4.71859E+002	  1.72459E-005	  2.56253E-005	  1.54931E-005	  1.33098E-005
  5.24288E+002	  7.01735E-006	  1.09243E-005	  2.71071E-006	  1.58064E-005
  5.76717E+002	 -2.56474E-005	 -2.13097E-005	 -4.23501E-005	 -1.77486E-005
  6.29146E+002	 -8.82011E-006	 -4.03596E-006	  1.12092E-005	 -2.93594E-005
  6.81574E+002	  1.11877E-005	  1.22519E-006	  2.18275E-005	  2.56785E-005
  7.34003E+002	  2.25191E-005	  3.10712E-005	  6.88106E-006	  4.41512E-005
  7.86432E+002	 -4.11566E-005	 -4.53477E-005	 -4.28135E-005	 -2.54490E-005
  8.38861E+002	 -2.93259E-005	 -3.88060E-005	 -2.37566E-005	 -2.32791E-005
  9.43718E+002	 -1.51485E-005	 -1.10215E-005	 -1.61380E-005	 -2.95028E-005
  1.04858E+003	 -3.91677E-006	 -6.86782E-006	  7.61672E-006	  6.61768E-007
  1.15343E+003	  1.55027E-005	  1.03722E-005	  2.06418E-005	  2.12297E-006
  1.25829E+003	  3.94884E-006	 -9.44171E-006	  1.48826E-005	  2.85522E-006
  1.36315E+003	  1.73257E-005	  1.29464E-005	  1.53151E-006	  1.44666E-005
  1.46801E+003	 -4.68295E-006	  8.13214E-006	  8.68798E-006	 -7.72422E-006
  1.57286E+003	 -9.22549E-007	 -5.96359E-007	  5.18926E-007	  8.53092E-006
  1.67772E+003	 -4.11237E-006	 -7.05259E-006	 -5.72248E-006	  7.16815E-006
  1.88744E+003	  9.25234E-006	  3.02368E-006	  6.58761E-006	  8.27525E-006
  2.09715E+003	  5.39870E-006	 -3.61099E-006	 -7.70416E-007	  6.13562E-006
  2.30687E+003	  1.05291E-006	  8.30614E-006	  1.65051E-005	  5.00803E-006
  2.51658E+003	  3.15302E-006	 -3.99139E-008	  5.77851E-006	 -8.55067E-006
  2.72630E+003	 -6.06157E-006	 -1.38732E-005	 -3.03061E-006	 -3.28018E-006
  2.93601E+003	 -8.05097E-006	  2.21055E-006	 -2.12927E-005	  8.14411E-006
  3.14573E+003	  9.83833E-006	  2.35606E-006	  5.06124E-006	  1.58518E-005
  3.35544E+003	 -8.52030E-006	 -9.08090E-006	 -1.29285E-007	 -1.13292E-005
  3.77487E+003	 -2.58960E-006	 -6.57994E-007	 -1.11417E-005	 -3.68091E-006
  4.19430E+003	  2.33174E-007	 -7.27036E-006	 -8.47217E-006	  5.24946E-006
  4.61373E+003	  9.83307E-006	  1.53616E-006	  1.12224E-005	  1.30670E-005
  5.03317E+003	 -9.02167E-006	 -1.32239E-005	 -9.31807E-006	  2.50602E-006
  5.45260E+003	 -3.76930E-006	 -5.55370E-007	 -1.16042E-005	 -5.48929E-007
  5.87203E+003	 -9.14072E-007	 -2.09811E-006	  8.85239E-006	 -3.76544E-006
  6.29146E+003	 -1.41053E-005	 -1.96116E-005	 -2.59522E-005	 -1.09239E-005
  6.71089E+003	 -7.39729E-006	 -1.29690E-005	 -1.24138E-005	 -7.73197E-006
  7.54975E+003	  9.46262E-006	  1.16889E-006	  5.25752E-006	  1.32497E-005
  8.38861E+003	 -1.11378E-005	 -9.16186E-006	 -1.38014E-005	 -1.29265E-005
  9.22747E+003	  3.88778E-006	  2.23759E-007	  3.39194E-006	  1.68987E-006
  1.00663E+004	 -8.37907E-006	 -1.33936E-005	 -7.14807E-006	 -7.40864E-006
  1.09052E+004	 -4.42347E-006	 -4.95307E-006	  1.47949E-006	 -6.04191E-006
  1.17441E+004	 -1.99058E-006	 -3.17942E-006	 -1.12077E-005	 -1.07790E-006

"Count Rate"
       0.27344	      58.85699	      72.09598	      58.85699	      72.09598
       0.54688	      59.20433	      71.24409	      59.20433	      71.24409
       0.82031	      59.39080	      71.97167	      59.39080	      71.97167
       1.09375	      59.58823	      71.59509	      59.58823	      71.59509
       1.36719	      58.61203	      69.81453	      58.61203	      69.81453
       1.64063	      57.62487	      70.29715	      57.62487	      70.29715
       1.91406	      59.31402	      72.13620	      59.31402	      72.13620
       2.18750	      58.87893	      70.65545	      58.87893	      70.65545
       2.46094	      59.17874	      71.90221	      59.17874	      71.90221
       2.73438	      58.76194	      71.42690	      58.76194	      71.42690
       3.00781	      57.51884	      71.18925	      57.51884	      71.18925
       3.28125	      58.38901	      71.39765	      58.38901	      71.39765
       3.55469	      58.99228	      71.19291	      58.99228	      71.19291
       3.82813	      58.84603	      72.04114	      58.84603	      72.04114
       4.10156	      58.48041	      71.50002	      58.48041	      71.50002
       4.37500	      58.75097	      71.32088	      58.75097	      71.32088
       4.64844	      58.49138	      72.34826	      58.49138	      72.34826
       4.92188	      58.66322	      71.37206	      58.66322	      71.37206
       5.19531	      59.22261	      70.09972	      59.22261	      70.09972
       5.46875	      60.06353	      71.30991	      60.06353	      71.30991
       5.74219	      59.05077	      71.86565	      59.05077	      71.86565
       6.01563	      58.96302	      71.31721	      58.96302	      71.31721
       6.28906	      59.18971	      71.20387	      59.18971	      71.20387
       6.56250	      58.97765	      72.43235	      58.97765	      72.43235
       6.83594	      59.88072	      71.74133	      59.88072	      71.74133
       7.10938	      57.25194	      70.29715	      57.25194	      70.29715
       7.38281	      59.23358	      72.53838	      59.23358	      72.53838
       7.65625	      59.36155	      71.52927	      59.36155	      71.52927
       7.92969	      58.80947	      72.23857	      58.80947	      72.23857
       8.20313	      58.78753	      71.69746	      58.78753	      71.69746
       8.47656	      58.91550	      71.30259	      58.91550	      71.30259
       8.75000	      59.05443	      71.98264	      59.05443	      71.98264
       9.02344	      58.08920	      70.68835	      58.08920	      70.68835
       9.29688	      58.90453	      71.31356	      58.90453	      71.31356
       9.57031	      58.56450	      70.60061	      58.56450	      70.60061
       9.84375	      59.12390	      70.43974	      59.12390	      70.43974
      10.11719	      58.12942	      70.67373	      58.12942	      70.67373
      10.39063	      59.34692	      72.60419	      59.34692	      72.60419
      10.66406	      57.67971	      70.02659	      57.67971	      70.02659
      10.93750	      59.39811	      72.50912	      59.39811	      72.50912
      11.21094	      58.30492	      70.32274	      58.30492	      70.32274
      11.48438	      60.16956	      71.76327	      60.16956	      71.76327
      11.75781	      58.56085	      71.80349	      58.56085	      71.80349
      12.03125	      58.90453	      70.57867	      58.90453	      70.57867
      12.30469	      60.05988	      72.34460	      60.05988	      72.34460
      12.57813	      58.85699	      72.01920	      58.85699	      72.01920
      12.85156	      58.28298	      70.35199	      58.28298	      70.35199
      13.12500	      58.49504	      70.65179	      58.49504	      70.65179
      13.39844	      59.56995	      72.35557	      59.56995	      72.35557
      13.67188	      58.71075	      71.97898	      58.71075	      71.97898
      13.94531	      57.48959	      71.22581	      57.48959	      71.22581
      14.21875	      58.35610	      71.48540	      58.35610	      71.48540
      14.49219	      59.94653	      72.08136	      59.94653	      72.08136
      14.76563	      58.53525	      70.97720	      58.53525	      70.97720
      15.03906	      58.74366	      71.73036	      58.74366	      71.73036
      15.31250	      59.63576	      71.81080	      59.63576	      71.81080
      15.58594	      57.69799	      70.13993	      57.69799	      70.13993
      15.85938	      57.94296	      71.11978	      57.94296	      71.11978
      16.13281	      57.91736	      69.45988	      57.91736	      69.45988
      16.40625	      58.54256	      71.85833	      58.54256	      71.85833
      16.67969	      59.45661	      71.51465	      59.45661	      71.51465
      16.95313	      59.08368	      71.40862	      59.08368	      71.40862
      17.22656	      57.88811	      71.40497	      57.88811	      71.40497
      17.50000	      57.21538	      70.56770	      57.21538	      70.56770
      17.77344	      58.67419	      70.04487	      58.67419	      70.04487
      18.04688	      57.71262	      70.38490	      57.71262	      70.38490
      18.32031	      58.65591	      72.13255	      58.65591	      72.13255
      18.59375	      58.09286	      72.53107	      58.09286	      72.53107
      18.86719	      57.89542	      69.86572	      57.89542	      69.86572
      19.14063	      59.94288	      71.70112	      59.94288	      71.70112
      19.41406	      60.61927	      73.65351	      60.61927	      73.65351
      19.68750	      57.96124	      70.05584	      57.96124	      70.05584
      19.96094	      58.81312	      70.85654	      58.81312	      70.85654
      20.23438	      58.72537	      71.24775	      58.72537	      71.24775
      20.50781	      59.22261	      72.02651	      59.22261	      72.02651
      20.78125	      59.70523	      71.93146	      59.70523	      71.93146
      21.05469	      59.13486	      72.14717	      59.13486	      72.14717
      21.32813	      60.66680	      72.29707	      60.66680	      72.29707
      21.60156	      58.63031	      71.37572	      58.63031	      71.37572
      21.87500	      59.42370	      69.84013	      59.42370	      69.84013
      22.14844	      58.61569	      71.21119	      58.61569	      71.21119
      22.42188	      60.09278	      72.07770	      60.09278	      72.07770
      22.69531	      59.18971	      71.64993	      59.18971	      71.64993
      22.96875	      59.58092	      71.91683	      59.58092	      71.91683
      23.24219	      58.00877	      71.13075	      58.00877	      71.13075
      23.51563	      59.53704	      72.61881	      59.53704	      72.61881
      23.78906	      58.80581	      71.78155	      58.80581	      71.78155
      24.06250	      59.25552	      71.19656	      59.25552	      71.19656
      24.33594	      57.82596	      69.85841	      57.82596	      69.85841
      24.60938	      58.84237	      70.60426	      58.84237	      70.60426
      24.88281	      58.54622	      71.45615	      58.54622	      71.45615
      25.15625	      59.21896	      71.77424	      59.21896	      71.77424
      25.42969	      58.50600	      70.84923	      58.50600	      70.84923
      25.70313	      58.61569	      70.56770	      58.61569	      70.56770
      25.97656	      58.78753	      72.09232	      58.78753	      72.09232
      26.25000	      58.44019	      70.21671	      58.44019	      70.21671
      26.52344	      59.23358	      71.89124	      59.23358	      71.89124
      26.79688	      58.68150	      71.60240	      58.68150	      71.60240
      27.07031	      58.54988	      71.33549	      58.54988	      71.33549
      27.34375	      58.20620	      70.07412	      58.20620	      70.07412
      27.61719	      59.21164	      71.73768	      59.21164	      71.73768
      27.89063	      59.36155	      72.99174	      59.36155	      72.99174
      28.16406	      59.47489	      72.05942	      59.47489	      72.05942
      28.43750	      58.85334	      71.36840	      58.85334	      71.36840
      28.71094	      57.61024	      70.64814	      57.61024	      70.64814
      28.98438	      58.49869	      70.83826	      58.49869	      70.83826
      29.25781	      58.49504	      69.55860	      58.49504	      69.55860
      29.53125	      58.48041	      70.56770	      58.48041	      70.56770
      29.80469	      58.95206	      72.37385	      58.95206	      72.37385
      30.07813	      59.10562	      71.56218	      59.10562	      71.56218
      30.35156	      59.01787	      70.93697	      59.01787	      70.93697
      30.62500	      59.44564	      72.61150	      59.44564	      72.61150
      30.89844	      58.02339	      71.43421	      58.02339	      71.43421
      31.17188	      57.62852	      70.46533	      57.62852	      70.46533
      31.44531	      58.26104	      69.75603	      58.26104	      69.75603
      31.71875	      58.86431	      71.17097	      58.86431	      71.17097
      31.99219	      57.60293	      69.08695	      57.60293	      69.08695
      32.26563	      59.02884	      72.06673	      59.02884	      72.06673
      32.53906	      60.04891	      71.02106	      60.04891	      71.02106
      32.81250	      59.94653	      72.43600	      59.94653	      72.43600
      33.08594	      58.90453	      72.26051	      58.90453	      72.26051
      33.35938	      57.04719	      70.03391	      57.04719	      70.03391
      33.63281	      59.24455	      70.78707	      59.24455	      70.78707
      33.90625	      58.19523	      70.60061	      58.19523	      70.60061
      34.17969	      59.21164	      71.74133	      59.21164	      71.74133
      34.45313	      59.31767	      71.67918	      59.31767	      71.67918
      34.72656	      58.43654	      71.03935	      58.43654	      71.03935
      35.00000	      57.81133	      69.16008	      57.81133	      69.16008
      35.27344	      59.28477	      71.37572	      59.28477	      71.37572
      35.54688	      58.80215	      71.78155	      58.80215	      71.78155
      35.82031	      59.82222	      71.93146	      59.82222	      71.93146
      36.09375	      59.96482	      72.56763	      59.96482	      72.56763
      36.36719	      57.63949	      69.81087	      57.63949	      69.81087
      36.64063	      58.58644	      71.50368	      58.58644	      71.50368
      36.91406	      57.36162	      70.61523	      57.36162	      70.61523
      37.18750	      60.10009	      72.68828	      60.10009	      72.68828
      37.46094	      58.43654	      70.90041	      58.43654	      70.90041
      37.73438	      58.64859	      71.07591	      58.64859	      71.07591
      38.00781	      59.25917	      71.44884	      59.25917	      71.44884
      38.28125	      56.52071	      70.23865	      56.52071	      70.23865
      38.55469	      58.69978	      71.23678	      58.69978	      71.23678
      38.82813	      57.77843	      71.46346	      57.77843	      71.46346
      39.10156	      58.21351	      72.06307	      58.21351	      72.06307
      39.37500	      58.48772	      71.39400	      58.48772	      71.39400
      39.64844	      58.46944	      72.63709	      58.46944	      72.63709
      39.92188	      58.24276	      71.32088	      58.24276	      71.32088
      40.19531	      58.91550	      70.92235	      58.91550	      70.92235
      40.46875	      60.46937	      72.74678	      60.46937	      72.74678
      40.74219	      58.29395	      70.88579	      58.29395	      70.88579
      41.01563	      58.85334	      72.62247	      58.85334	      72.62247
      41.28906	      59.31402	      72.99905	      59.31402	      72.99905
      41.56250	      58.58644	      70.76148	      58.58644	      70.76148
      41.83594	      58.97400	      71.86198	      58.97400	      71.86198
      42.10938	      58.85334	      70.65179	      58.85334	      70.65179
      42.38281	      59.06174	      71.67187	      59.06174	      71.67187
      42.65625	      58.87162	      71.30991	      58.87162	      71.30991
      42.92969	      58.66322	      71.22581	      58.66322	      71.22581
      43.20313	      58.56085	      70.87116	      58.56085	      70.87116
      43.47656	      59.25552	      71.55487	      59.25552	      71.55487
      43.75000	      59.29939	      71.81812	      59.29939	      71.81812
      44.02344	      58.56085	      71.54025	      58.56085	      71.54025
      44.29688	      57.76380	      70.76879	      57.76380	      70.76879
      44.57031	      58.19523	      71.27700	      58.19523	      71.27700
      44.84375	      58.29760	      72.09232	      58.29760	      72.09232
      45.11719	      59.42736	      72.26417	      59.42736	      72.26417
      45.39063	      59.59920	      71.71208	      59.59920	      71.71208
      45.66406	      59.43467	      71.85833	      59.43467	      71.85833
      45.93750	      59.03615	      71.78155	      59.03615	      71.78155
      46.21094	      58.03436	      70.65179	      58.03436	      70.65179
      46.48438	      58.62666	      71.92049	      58.62666	      71.92049
      46.75781	      59.79663	      72.54935	      59.79663	      72.54935
      47.03125	      59.66867	      71.16366	      59.66867	      71.16366
      47.30469	      58.20254	      71.01010	      58.20254	      71.01010
      47.57813	      58.82409	      70.76148	      58.82409	      70.76148
      47.85156	      58.61569	      71.17463	      58.61569	      71.17463
      48.12500	      60.15494	      71.56218	      60.15494	      71.56218
      48.39844	      59.19336	      70.99548	      59.19336	      70.99548
      48.67188	      57.92467	      70.52383	      57.92467	      70.52383
      48.94531	      60.23903	      73.22939	      60.23903	      73.22939
      49.21875	      60.42549	      73.61695	      60.42549	      73.61695
      49.49219	      58.94474	      72.36288	      58.94474	      72.36288
      49.76563	      59.12024	      71.25140	      59.12024	      71.25140
      50.03906	      57.55540	      70.79804	      57.55540	      70.79804
      50.31250	      59.90266	      71.47078	      59.90266	      71.47078
      50.58594	      58.15501	      70.65179	      58.15501	      70.65179
      50.85938	      60.47302	      72.56763	      60.47302	      72.56763
      51.13281	      59.17874	      71.91317	      59.17874	      71.91317
      51.40625	      59.38714	      71.63531	      59.38714	      71.63531
      51.67969	      58.84969	      70.17284	      58.84969	      70.17284
      51.95313	      58.71441	      71.52562	      58.71441	      71.52562
      52.22656	      59.40908	      71.82908	      59.40908	      71.82908
      52.50000	      59.05077	      71.88393	      59.05077	      71.88393
      52.77344	      59.24821	      71.76327	      59.24821	      71.76327
      53.04688	      58.60106	      70.76148	      58.60106	      70.76148
      53.32031	      57.03622	      68.61897	      57.03622	      68.61897
      53.59375	      59.78201	      71.97533	      59.78201	      71.97533
      53.86719	      60.42549	      71.75961	      60.42549	      71.75961
      54.14063	      57.16053	      70.19477	      57.16053	      70.19477
      54.41406	      58.50235	      70.98816	      58.50235	      70.98816
      54.68750	      58.00511	      69.61344	      58.00511	      69.61344
      54.96094	      57.76746	      70.15090	      57.76746	      70.15090
      55.23438	      57.10204	      68.95899	      57.10204	      68.95899
      55.50781	      58.59010	      70.86751	      58.59010	      70.86751
      55.78125	      59.27380	      71.76327	      59.27380	      71.76327
      56.05469	      59.62114	      71.55853	      59.62114	      71.55853
      56.32813	      58.87893	      71.17828	      58.87893	      71.17828
      56.60156	      58.29029	      70.90407	      58.29029	      70.90407
      56.87500	      59.50779	      71.96436	      59.50779	      71.96436
      57.14844	      59.18240	      72.59688	      59.18240	      72.59688
      57.42188	      58.80947	      71.54025	      58.80947	      71.54025
      57.69531	      56.67426	      70.16187	      56.67426	      70.16187
      57.96875	      59.36886	      69.91691	      59.36886	      69.91691
      58.24219	      59.94653	      72.47622	      59.94653	      72.47622
      58.51563	      58.06361	      71.05397	      58.06361	      71.05397
      58.78906	      59.27014	      71.24775	      59.27014	      71.24775
      59.06250	      57.81133	      70.27521	      57.81133	      70.27521
      59.33594	      57.30678	      70.38855	      57.30678	      70.38855
      59.60938	      58.27201	      70.41415	      58.27201	      70.41415
      59.88281	      58.57182	      70.73954	      58.57182	      70.73954
      60.15625	      57.89908	      70.35564	      57.89908	      70.35564
      60.42969	      59.60286	      71.44518	      59.60286	      71.44518
      60.70313	      59.97578	      72.05576	      59.97578	      72.05576
      60.97656	      58.93012	      71.82908	      58.93012	      71.82908
      61.25000	      59.61382	      70.88213	      59.61382	      70.88213
      61.52344	      58.67785	      70.04121	      58.67785	      70.04121
      61.79688	      59.32499	      72.07404	      59.32499	      72.07404
      62.07031	      58.30492	      69.86206	      58.30492	      69.86206
      62.34375	      59.17874	      71.68649	      59.17874	      71.68649
      62.61719	      58.04167	      70.84192	      58.04167	      70.84192
      62.89063	      60.08181	      71.72671	      60.08181	      71.72671
      63.16406	      59.66867	      71.16731	      59.66867	      71.16731
      63.43750	      57.94661	      71.32088	      57.94661	      71.32088
      63.71094	      59.01787	      71.43421	      59.01787	      71.43421
      63.98438	      59.36886	      72.53107	      59.36886	      72.53107
      64.25781	      59.09830	      70.60792	      59.09830	      70.60792
      64.53125	      59.25917	      71.30991	      59.25917	      71.30991
      64.80469	      58.41460	      71.82542	      58.41460	      71.82542
      65.07813	      58.84969	      71.55853	      58.84969	      71.55853
      65.35156	      59.55898	      71.23312	      59.55898	      71.23312
      65.62500	      59.16046	      71.93511	      59.16046	      71.93511
      65.89844	      57.86617	      69.84743	      57.86617	      69.84743
      66.17188	      60.12569	      71.41228	      60.12569	      71.41228
      66.44531	      57.95758	      70.52383	      57.95758	      70.52383
      66.71875	      58.33782	      70.91138	      58.33782	      70.91138
      66.99219	      57.78574	      71.08688	      57.78574	      71.08688
      67.26563	      57.96855	      69.86938	      57.96855	      69.86938
      67.53906	      58.69247	      71.58778	      58.69247	      71.58778
      67.81250	      59.08733	      71.38303	      59.08733	      71.38303
      68.08594	      59.40176	      71.08688	      59.40176	      71.08688
      68.35938	      58.08554	      70.75417	      58.08554	      70.75417
      68.63281	      58.40363	      71.59143	      58.40363	      71.59143
      68.90625	      58.74731	      70.79073	      58.74731	      70.79073
      69.17969	      58.73269	      71.34281	      58.73269	      71.34281
      69.45313	      59.18605	      70.73223	      59.18605	      70.73223

Monitor Diode	1634680.57
"StandardDeviation"
  3.12500E-006	  4.29467E-002
  6.25000E-006	  4.29467E-002
  9.37500E-006	  4.29460E-002
  1.25000E-005	  4.29461E-002
  1.56250E-005	  4.29467E-002
  1.87500E-005	  4.29461E-002
  2.18750E-005	  4.29463E-002
  2.50000E-005	  4.29461E-002
  2.81250E-005	  4.29461E-002
  3.12500E-005	  4.29459E-002
  3.43750E-005	  4.16060E-002
  3.75000E-005	  4.18097E-002
  4.06250E-005	  4.29460E-002
  4.37500E-005	  4.17666E-002
  4.68750E-005	  4.22966E-002
  5.00000E-005	  2.95812E-002
  5.62500E-005	  2.95328E-002
  6.25000E-005	  2.92882E-002
  6.87500E-005	  2.93527E-002
  7.50000E-005	  2.94015E-002
  8.12500E-005	  2.93860E-002
  8.75000E-005	  2.95784E-002
  9.37500E-005	  2.93617E-002
  1.00000E-004	  2.07747E-002
  1.12500E-004	  2.09449E-002
  1.25000E-004	  2.08168E-002
  1.37500E-004	  2.09226E-002
  1.50000E-004	  2.08191E-002
  1.62500E-004	  2.06360E-002
  1.75000E-004	  2.08958E-002
  1.87500E-004	  2.08073E-002
  2.00000E-004	  1.46810E-002
  2.25000E-004	  1.46886E-002
  2.50000E-004	  1.46384E-002
  2.75000E-004	  1.47541E-002
  3.00000E-004	  1.47131E-002
  3.25000E-004	  1.47275E-002
  3.50000E-004	  1.47687E-002
  3.75000E-004	  1.47218E-002
  4.00000E-004	  1.04399E-002
  4.50000E-004	  1.04168E-002
  5.00000E-004	  1.04333E-002
  5.50000E-004	  1.04058E-002
  6.00000E-004	  1.03642E-002
  6.50000E-004	  1.04083E-002
  7.00000E-004	  1.04180E-002
  7.50000E-004	  1.04115E-002
  8.00000E-004	  7.37860E-003
  9.00000E-004	  7.36382E-003
  1.00000E-003	  7.38933E-003
  1.10000E-003	  7.34888E-003
  1.20000E-003	  7.36891E-003
  1.30000E-003	  7.35136E-003
  1.40000E-003	  7.36079E-003
  1.50000E-003	  7.35680E-003
  1.60000E-003	  5.22033E-003
  1.80000E-003	  5.21501E-003
  2.00000E-003	  5.21326E-003
  2.20000E-003	  5.19876E-003
  2.40000E-003	  5.20514E-003
  2.60000E-003	  5.20691E-003
  2.80000E-003	  5.20061E-003
  3.00000E-003	  5.19279E-003
  3.20000E-003	  3.70761E-003
  3.60000E-003	  3.70422E-003
  4.00000E-003	  3.70340E-003
  4.40000E-003	  3.69202E-003
  4.80000E-003	  3.69030E-003
  5.20000E-003	  3.69072E-003
  5.60000E-003	  3.68409E-003
  6.00000E-003	  3.67740E-003
  6.40000E-003	  2.64638E-003
  7.20000E-003	  2.63825E-003
  8.00000E-003	  2.63124E-003
  8.80000E-003	  2.62832E-003
  9.60000E-003	  2.62029E-003
  1.04000E-002	  2.61616E-003
  1.12000E-002	  2.60660E-003
  1.20000E-002	  2.59829E-003
  1.28000E-002	  1.89536E-003
  1.44000E-002	  1.88722E-003
  1.60000E-002	  1.87672E-003
  1.76000E-002	  1.87073E-003
  1.92000E-002	  1.86184E-003
  2.08000E-002	  1.85085E-003
  2.24000E-002	  1.84586E-003
  2.40000E-002	  1.83786E-003
  2.56000E-002	  1.36464E-003
  2.88000E-002	  1.35236E-003
  3.20000E-002	  1.34089E-003
  3.52000E-002	  1.33161E-003
  3.84000E-002	  1.32229E-003
  4.16000E-002	  1.31355E-003
  4.48000E-002	  1.30699E-003
  4.80000E-002	  1.29878E-003
  5.12000E-002	  9.86304E-004
  5.76000E-002	  9.74877E-004
  6.40000E-002	  9.66320E-004
  7.04000E-002	  9.58304E-004
  7.68000E-002	  9.52231E-004
  8.32000E-002	  9.46748E-004
  8.96000E-002	  9.41899E-004
  9.60000E-002	  9.37500E-004
  1.02400E-001	  7.32697E-004
  1.15200E-001	  7.26322E-004
  1.28000E-001	  7.22770E-004
  1.40800E-001	  7.20113E-004
  1.53600E-001	  7.18123E-004
  1.66400E-001	  7.16826E-004
  1.79200E-001	  7.16119E-004
  1.92000E-001	  7.12684E-004
  2.04800E-001	  5.72850E-004
  2.30400E-001	  5.72850E-004
  2.56000E-001	  5.72850E-004
  2.81600E-001	  5.72850E-004
  3.07200E-001	  5.72850E-004
  3.32800E-001	  5.72850E-004
  3.58400E-001	  5.72850E-004
  3.84000E-001	  5.72850E-004
  4.09600E-001	  4.70243E-004
  4.60800E-001	  4.70243E-004
  5.12000E-001	  4.70243E-004
  5.63200E-001	  4.70243E-004
  6.14400E-001	  4.70243E-004
  6.65600E-001	  4.70243E-004
  7.16800E-001	  4.70243E-004
  7.68000E-001	  4.70243E-004
  8.19200E-001	  3.85767E-004
  9.21600E-001	  3.85767E-004
  1.02400E+000	  3.85767E-004
  1.12640E+000	  3.85767E-004
  1.22880E+000	  3.85767E-004
  1.33120E+000	  3.85767E-004
  1.43360E+000	  3.85767E-004
  1.53600E+000	  3.85767E-004
  1.63840E+000	  3.01743E-004
  1.84320E+000	  3.01743E-004
  2.04800E+000	  3.01743E-004
  2.25280E+000	  3.01743E-004
  2.45760E+000	  3.01743E-004
  2.66240E+000	  3.01743E-004
  2.86720E+000	  3.01743E-004
  3.07200E+000	  3.01743E-004
  3.27680E+000	  2.26283E-004
  3.68640E+000	  2.26283E-004
  4.09600E+000	  2.26283E-004
  4.50560E+000	  2.26283E-004
  4.91520E+000	  2.26283E-004
  5.32480E+000	  2.26283E-004
  5.73440E+000	  2.26283E-004
  6.14400E+000	  2.26283E-004
  6.55360E+000	  1.64854E-004
  7.37280E+000	  1.64854E-004
  8.19200E+000	  1.64854E-004
  9.01120E+000	  1.64854E-004
  9.83040E+000	  1.64854E-004
  1.06496E+001	  1.64854E-004
  1.14688E+001	  1.64854E-004
  1.22880E+001	  1.64854E-004
  1.31072E+001	  1.18285E-004
  1.47456E+001	  1.18285E-004
  1.63840E+001	  1.18285E-004
  1.80224E+001	  1.18285E-004
  1.96608E+001	  1.18285E-004
  2.12992E+001	  1.18285E-004
  2.29376E+001	  1.18285E-004
  2.45760E+001	  1.18285E-004
  2.62144E+001	  8.42468E-005
  2.94912E+001	  8.42468E-005
  3.27680E+001	  8.42468E-005
  3.60448E+001	  8.42468E-005
  3.93216E+001	  8.42468E-005
  4.25984E+001	  8.42468E-005
  4.58752E+001	  8.42468E-005
  4.91520E+001	  8.42468E-005
  5.24288E+001	  5.97859E-005
  5.89824E+001	  5.97859E-005
  6.55360E+001	  5.97859E-005
  7.20896E+001	  5.97859E-005
  7.86432E+001	  5.97859E-005
  8.51968E+001	  5.97859E-005
  9.17504E+001	  5.97859E-005
  9.83040E+001	  5.97859E-005
  1.04858E+002	  4.23509E-005
  1.17965E+002	  4.23509E-005
  1.31072E+002	  4.23509E-005
  1.44179E+002	  4.23509E-005
  1.57286E+002	  4.23509E-005
  1.70394E+002	  4.23509E-005
  1.83501E+002	  4.23509E-005
  1.96608E+002	  4.23509E-005
  2.09715E+002	  2.99734E-005
  2.35930E+002	  2.99734E-005
  2.62144E+002	  2.99734E-005
  2.88358E+002	  2.99734E-005
  3.14573E+002	  2.99734E-005
  3.40787E+002	  2.99734E-005
  3.67002E+002	  2.99734E-005
  3.93216E+002	  2.99734E-005
  4.19430E+002	  2.12039E-005
  4.71859E+002	  2.12039E-005
  5.24288E+002	  2.12039E-005
  5.76717E+002	  2.12039E-005
  6.29146E+002	  2.12039E-005
  6.81574E+002	  2.12039E-005
  7.34003E+002	  2.12039E-005
  7.86432E+002	  2.12039E-005
  8.38861E+002	  1.49968E-005
  9.43718E+002	  1.49968E-005
  1.04858E+003	  1.49968E-005
  1.15343E+003	  1.49968E-005
  1.25829E+003	  1.49968E-005
  1.36315E+003	  1.49968E-005
  1.46801E+003	  1.49968E-005
  1.57286E+003	  1.49968E-005
  1.67772E+003	  1.06055E-005
  1.88744E+003	  1.06055E-005
  2.09715E+003	  1.06055E-005
  2.30687E+003	  1.06055E-005
  2.51658E+003	  1.06055E-005
  2.72630E+003	  1.06055E-005
  2.93601E+003	  1.06055E-005
  3.14573E+003	  1.06055E-005
  3.35544E+003	  7.49963E-006
  3.77487E+003	  7.49963E-006
  4.19430E+003	  7.49963E-006
  4.61373E+003	  7.49963E-006
  5.03317E+003	  7.49963E-006
  5.45260E+003	  7.49963E-006
  5.87203E+003	  7.49963E-006
  6.29146E+003	  7.49963E-006
  6.71089E+003	  5.30319E-006
  7.54975E+003	  5.30319E-006
  8.38861E+003	  5.30319E-006
  9.22747E+003	  5.30319E-006
  1.00663E+004	  5.30319E-006
  1.09052E+004	  5.30319E-006
  1.17441E+004	  5.30319E-006
