ALV-7004 or ALV-7004/FAST Data
Date :	"3/27/2010"
Time :	"11:57:18 AM"
Samplename : 	"BSA 4 g/l in YCl3 8.3mM"
SampMemo(0) : 	""
SampMemo(1) : 	""
SampMemo(2) : 	""
SampMemo(3) : 	""
SampMemo(4) : 	""
SampMemo(5) : 	""
SampMemo(6) : 	""
SampMemo(7) : 	""
SampMemo(8) : 	""
SampMemo(9) : 	""
Temperature [K] :	     295.72558
Viscosity [cp]  :	       0.94170
Refractive Index:	       1.33200
Wavelength [nm] :	     632.80000
Angle [°]       :	      90.00000
Duration [s]    :	        50
Runs            :	         1
Mode            :	"C-CH0/1+1/0"
MeanCR0 [kHz]   :	     218.06619
MeanCR1 [kHz]   :	     259.48447
MeanCR2 [kHz]   :	       0.00000
MeanCR3 [kHz]   :	       0.00000

"Correlation"
  3.12500E-006	  6.78571E-001	  6.90188E-001	 -2.00000E+000	 -2.00000E+000
  6.25000E-006	  6.31825E-001	  6.42130E-001	 -2.00000E+000	 -2.00000E+000
  9.37500E-006	  6.65918E-001	  6.93557E-001	 -2.00000E+000	 -2.00000E+000
  1.25000E-005	  6.31264E-001	  5.91066E-001	 -2.00000E+000	 -2.00000E+000
  1.56250E-005	  6.73296E-001	  6.90518E-001	 -2.00000E+000	 -2.00000E+000
  1.87500E-005	  6.71543E-001	  6.83380E-001	 -2.00000E+000	 -2.00000E+000
  2.18750E-005	  6.48423E-001	  6.54025E-001	 -2.00000E+000	 -2.00000E+000
  2.50000E-005	  6.42656E-001	  6.48708E-001	 -2.00000E+000	 -2.00000E+000
  2.81250E-005	  6.72726E-001	  6.97296E-001	 -2.00000E+000	 -2.00000E+000
  3.12500E-005	  6.67797E-001	  6.32634E-001	 -2.00000E+000	 -2.00000E+000
  3.43750E-005	  6.44123E-001	  6.54372E-001	 -2.00000E+000	 -2.00000E+000
  3.75000E-005	  6.70504E-001	  6.26156E-001	 -2.00000E+000	 -2.00000E+000
  4.06250E-005	  6.80749E-001	  6.81545E-001	 -2.00000E+000	  9.52742E-001
  4.37500E-005	  6.50799E-001	  6.63890E-001	 -2.00000E+000	  1.00586E+000
  4.68750E-005	  6.62300E-001	  6.17905E-001	 -2.00000E+000	 -5.88998E-001
  5.00000E-005	  6.66909E-001	  6.57142E-001	 -2.00000E+000	  1.88255E+000
  5.62500E-005	  6.66315E-001	  6.34151E-001	 -2.00000E+000	  9.01087E-001
  6.25000E-005	  6.57399E-001	  6.55788E-001	 -2.00000E+000	  9.11743E-001
  6.87500E-005	  6.52560E-001	  6.49330E-001	 -1.92391E+000	  1.05250E+000
  7.50000E-005	  6.57263E-001	  6.49287E-001	  1.73040E+000	  7.03402E-001
  8.12500E-005	  6.77820E-001	  6.71424E-001	  8.76553E-001	  7.41420E-001
  8.75000E-005	  6.41686E-001	  6.37776E-001	  8.90634E-001	  7.16288E-001
  9.37500E-005	  6.45995E-001	  6.51370E-001	  8.06654E-001	  7.44936E-001
  1.00000E-004	  6.56793E-001	  6.56322E-001	  7.43042E-001	  6.99539E-001
  1.12500E-004	  6.53675E-001	  6.53859E-001	  7.64043E-001	  7.07016E-001
  1.25000E-004	  6.54827E-001	  6.52311E-001	  7.21272E-001	  7.16525E-001
  1.37500E-004	  6.65001E-001	  6.66545E-001	  6.72251E-001	  7.18569E-001
  1.50000E-004	  6.50380E-001	  6.42761E-001	  6.69956E-001	  6.87837E-001
  1.62500E-004	  6.51669E-001	  6.62615E-001	  6.49403E-001	  6.90452E-001
  1.75000E-004	  6.54738E-001	  6.62238E-001	  6.39465E-001	  6.80970E-001
  1.87500E-004	  6.53170E-001	  6.53753E-001	  6.64267E-001	  6.83886E-001
  2.00000E-004	  6.53510E-001	  6.53268E-001	  6.41956E-001	  6.73924E-001
  2.25000E-004	  6.53765E-001	  6.54697E-001	  6.48765E-001	  6.87503E-001
  2.50000E-004	  6.50182E-001	  6.48116E-001	  6.53513E-001	  6.88252E-001
  2.75000E-004	  6.53068E-001	  6.50296E-001	  6.57152E-001	  6.76320E-001
  3.00000E-004	  6.48190E-001	  6.50549E-001	  6.55095E-001	  6.71771E-001
  3.25000E-004	  6.54941E-001	  6.53333E-001	  6.41453E-001	  6.68897E-001
  3.50000E-004	  6.43384E-001	  6.40111E-001	  6.42561E-001	  6.74613E-001
  3.75000E-004	  6.48354E-001	  6.44404E-001	  6.50615E-001	  6.75500E-001
  4.00000E-004	  6.52017E-001	  6.49896E-001	  6.42437E-001	  6.76451E-001
  4.50000E-004	  6.46682E-001	  6.45565E-001	  6.50554E-001	  6.61620E-001
  5.00000E-004	  6.47961E-001	  6.43997E-001	  6.43832E-001	  6.68307E-001
  5.50000E-004	  6.44282E-001	  6.45240E-001	  6.39832E-001	  6.62443E-001
  6.00000E-004	  6.44355E-001	  6.38378E-001	  6.46157E-001	  6.66262E-001
  6.50000E-004	  6.45701E-001	  6.48165E-001	  6.48595E-001	  6.60999E-001
  7.00000E-004	  6.39706E-001	  6.35054E-001	  6.44085E-001	  6.63516E-001
  7.50000E-004	  6.39522E-001	  6.42859E-001	  6.33471E-001	  6.61948E-001
  8.00000E-004	  6.41611E-001	  6.40282E-001	  6.37669E-001	  6.59131E-001
  9.00000E-004	  6.32587E-001	  6.31315E-001	  6.44131E-001	  6.55402E-001
  1.00000E-003	  6.30633E-001	  6.29893E-001	  6.35059E-001	  6.56031E-001
  1.10000E-003	  6.28601E-001	  6.26254E-001	  6.31363E-001	  6.47938E-001
  1.20000E-003	  6.26091E-001	  6.28541E-001	  6.33115E-001	  6.45070E-001
  1.30000E-003	  6.22841E-001	  6.26820E-001	  6.25134E-001	  6.37473E-001
  1.40000E-003	  6.21042E-001	  6.20676E-001	  6.22817E-001	  6.33573E-001
  1.50000E-003	  6.21138E-001	  6.19426E-001	  6.25562E-001	  6.35885E-001
  1.60000E-003	  6.19115E-001	  6.16393E-001	  6.20677E-001	  6.32868E-001
  1.80000E-003	  6.13913E-001	  6.16266E-001	  6.15395E-001	  6.30278E-001
  2.00000E-003	  6.09295E-001	  6.09834E-001	  6.11703E-001	  6.23726E-001
  2.20000E-003	  6.02932E-001	  6.01804E-001	  6.06139E-001	  6.19886E-001
  2.40000E-003	  5.98644E-001	  5.98216E-001	  6.10021E-001	  6.15774E-001
  2.60000E-003	  5.95073E-001	  5.93788E-001	  6.05042E-001	  6.08602E-001
  2.80000E-003	  5.93427E-001	  5.94440E-001	  5.98799E-001	  6.02815E-001
  3.00000E-003	  5.85889E-001	  5.84521E-001	  5.89787E-001	  5.98285E-001
  3.20000E-003	  5.82118E-001	  5.81828E-001	  5.83646E-001	  5.95762E-001
  3.60000E-003	  5.72494E-001	  5.72952E-001	  5.76293E-001	  5.83732E-001
  4.00000E-003	  5.66725E-001	  5.65013E-001	  5.67619E-001	  5.76886E-001
  4.40000E-003	  5.56810E-001	  5.56502E-001	  5.60228E-001	  5.64466E-001
  4.80000E-003	  5.50217E-001	  5.48907E-001	  5.51585E-001	  5.57375E-001
  5.20000E-003	  5.39817E-001	  5.40086E-001	  5.46973E-001	  5.51482E-001
  5.60000E-003	  5.31169E-001	  5.31023E-001	  5.37078E-001	  5.39341E-001
  6.00000E-003	  5.24040E-001	  5.23318E-001	  5.31094E-001	  5.33480E-001
  6.40000E-003	  5.15369E-001	  5.14670E-001	  5.21100E-001	  5.27073E-001
  7.20000E-003	  5.00519E-001	  4.99603E-001	  5.05251E-001	  5.11074E-001
  8.00000E-003	  4.86206E-001	  4.85195E-001	  4.91922E-001	  4.94827E-001
  8.80000E-003	  4.72122E-001	  4.71492E-001	  4.77357E-001	  4.81592E-001
  9.60000E-003	  4.57701E-001	  4.57494E-001	  4.63290E-001	  4.65395E-001
  1.04000E-002	  4.45377E-001	  4.44516E-001	  4.48780E-001	  4.50081E-001
  1.12000E-002	  4.30233E-001	  4.31199E-001	  4.36538E-001	  4.38984E-001
  1.20000E-002	  4.17861E-001	  4.17745E-001	  4.24014E-001	  4.25383E-001
  1.28000E-002	  4.05396E-001	  4.05079E-001	  4.11429E-001	  4.13695E-001
  1.44000E-002	  3.81947E-001	  3.80556E-001	  3.86716E-001	  3.89527E-001
  1.60000E-002	  3.59580E-001	  3.61025E-001	  3.65192E-001	  3.67449E-001
  1.76000E-002	  3.37489E-001	  3.37673E-001	  3.42620E-001	  3.44821E-001
  1.92000E-002	  3.18953E-001	  3.18596E-001	  3.21956E-001	  3.24462E-001
  2.08000E-002	  2.99077E-001	  2.99087E-001	  3.03376E-001	  3.06536E-001
  2.24000E-002	  2.83190E-001	  2.83609E-001	  2.86409E-001	  2.88337E-001
  2.40000E-002	  2.66686E-001	  2.66295E-001	  2.69827E-001	  2.71405E-001
  2.56000E-002	  2.50868E-001	  2.51204E-001	  2.54401E-001	  2.55066E-001
  2.88000E-002	  2.22954E-001	  2.22222E-001	  2.25265E-001	  2.26589E-001
  3.20000E-002	  1.97616E-001	  1.96857E-001	  2.01177E-001	  2.02346E-001
  3.52000E-002	  1.75339E-001	  1.75195E-001	  1.78273E-001	  1.79179E-001
  3.84000E-002	  1.55492E-001	  1.55659E-001	  1.58334E-001	  1.58710E-001
  4.16000E-002	  1.38616E-001	  1.38169E-001	  1.40114E-001	  1.41574E-001
  4.48000E-002	  1.23020E-001	  1.23169E-001	  1.24260E-001	  1.25380E-001
  4.80000E-002	  1.09428E-001	  1.09701E-001	  1.09734E-001	  1.10440E-001
  5.12000E-002	  9.72546E-002	  9.75706E-002	  9.85765E-002	  9.91475E-002
  5.76000E-002	  7.66613E-002	  7.67442E-002	  7.78192E-002	  7.78385E-002
  6.40000E-002	  6.13319E-002	  6.14932E-002	  6.13444E-002	  6.20913E-002
  7.04000E-002	  4.84115E-002	  4.85057E-002	  4.88729E-002	  4.95942E-002
  7.68000E-002	  3.85516E-002	  3.86092E-002	  3.87771E-002	  3.88129E-002
  8.32000E-002	  3.06701E-002	  3.06946E-002	  3.15767E-002	  3.15158E-002
  8.96000E-002	  2.48621E-002	  2.47726E-002	  2.50632E-002	  2.53397E-002
  9.60000E-002	  1.99979E-002	  2.03943E-002	  2.00842E-002	  2.02440E-002
  1.02400E-001	  1.59413E-002	  1.64766E-002	  1.65104E-002	  1.66343E-002
  1.15200E-001	  1.01149E-002	  1.05457E-002	  1.02952E-002	  1.04161E-002
  1.28000E-001	  6.66851E-003	  6.74014E-003	  6.29560E-003	  6.76751E-003
  1.40800E-001	  4.15899E-003	  4.28203E-003	  4.15259E-003	  4.65573E-003
  1.53600E-001	  2.74679E-003	  2.72917E-003	  2.69968E-003	  2.63694E-003
  1.66400E-001	  1.57734E-003	  1.43032E-003	  9.58015E-004	  1.54670E-003
  1.79200E-001	  4.41864E-004	  3.38804E-004	  6.03087E-004	  3.95742E-004
  1.92000E-001	 -3.92942E-005	 -3.17985E-004	  9.09787E-005	 -5.44306E-005
  2.04800E-001	 -3.31099E-004	 -8.83693E-004	 -3.08716E-004	 -2.86950E-004
  2.30400E-001	  6.09743E-005	 -5.12425E-004	 -4.20073E-004	 -1.68668E-004
  2.56000E-001	  3.36595E-004	  4.43096E-004	  3.35606E-004	  3.97297E-004
  2.81600E-001	  3.75808E-004	  8.14834E-004	  4.74738E-004	  5.35874E-004
  3.07200E-001	  2.93780E-004	  2.52012E-004	  7.33792E-004	  2.93164E-004
  3.32800E-001	  5.83632E-004	  3.77784E-005	  7.11063E-004	  1.08868E-003
  3.58400E-001	  4.24542E-004	  3.81131E-004	  6.05893E-004	  4.56407E-005
  3.84000E-001	  5.03824E-004	  1.70579E-004	  1.38189E-003	  3.30094E-004
  4.09600E-001	  3.47055E-004	  3.06016E-005	  3.79649E-004	  2.30955E-004
  4.60800E-001	  1.68434E-004	  2.41535E-004	  5.77462E-005	  3.35377E-004
  5.12000E-001	  6.67120E-004	  4.62229E-004	  7.92582E-004	  5.03797E-004
  5.63200E-001	  3.48990E-004	  3.92402E-004	 -1.31227E-004	  1.04461E-003
  6.14400E-001	 -2.17000E-004	 -1.23043E-005	 -4.19644E-004	 -1.09822E-004
  6.65600E-001	 -2.50248E-004	 -2.96917E-004	 -2.71220E-004	 -4.67532E-004
  7.16800E-001	  6.14904E-005	 -1.95569E-004	 -1.20347E-004	  1.89054E-005
  7.68000E-001	  2.48943E-004	  6.38173E-004	  1.50131E-004	  6.18380E-004
  8.19200E-001	  1.58130E-004	  3.49356E-004	  4.05160E-005	  4.55610E-004
  9.21600E-001	  3.10475E-004	  9.12042E-005	  2.46371E-004	  1.60414E-004
  1.02400E+000	 -1.84604E-004	 -2.28217E-004	 -1.05079E-005	 -3.33869E-004
  1.12640E+000	  2.69510E-005	 -1.30302E-005	  2.02292E-004	  1.72437E-004
  1.22880E+000	  2.37756E-004	  1.61824E-004	  2.92170E-004	  2.58095E-004
  1.33120E+000	 -1.77540E-004	 -3.26657E-004	 -3.15572E-004	 -4.20656E-004
  1.43360E+000	  9.90943E-005	  3.18219E-004	 -1.43176E-004	  4.44180E-004
  1.53600E+000	  7.10396E-005	  2.09555E-004	  1.46049E-004	 -4.87991E-005
  1.63840E+000	 -3.15434E-005	 -8.67950E-005	  9.13534E-006	 -2.08057E-004
  1.84320E+000	  1.68363E-004	  1.36157E-004	 -1.34916E-004	  3.29847E-004
  2.04800E+000	  2.24380E-006	 -2.02195E-004	  2.10104E-004	 -1.53278E-004
  2.25280E+000	 -5.01367E-004	 -3.90806E-004	 -8.32944E-004	 -2.01514E-004
  2.45760E+000	 -5.56533E-004	 -5.95331E-004	 -4.16082E-004	 -4.62048E-004
  2.66240E+000	 -2.86230E-004	 -2.79898E-004	 -5.28629E-004	 -1.13701E-004
  2.86720E+000	  3.98616E-004	  3.39966E-004	  4.52353E-004	  2.72202E-004
  3.07200E+000	 -1.92357E-004	 -1.28636E-004	 -8.77271E-005	 -4.06467E-005
  3.27680E+000	 -1.20024E-004	  1.56326E-005	 -1.48096E-005	 -1.45538E-004
  3.68640E+000	 -8.22487E-006	  1.33215E-004	 -1.00645E-004	  9.63009E-005
  4.09600E+000	 -1.41416E-004	 -2.44878E-005	 -1.14882E-004	 -2.59933E-004
  4.50560E+000	 -8.27712E-005	 -2.22607E-004	 -7.58089E-005	  3.75659E-005
  4.91520E+000	 -2.89092E-005	  7.75253E-005	 -4.47958E-005	 -2.82743E-005
  5.32480E+000	 -3.60098E-004	 -3.62369E-004	 -3.21490E-004	 -3.39454E-004
  5.73440E+000	 -2.76978E-004	 -5.65957E-004	 -3.95673E-004	 -8.41575E-005
  6.14400E+000	  4.94127E-005	  2.40140E-004	  1.13770E-004	 -1.53850E-004
  6.55360E+000	 -3.44405E-004	 -3.51602E-004	 -3.01589E-004	 -3.37506E-004
  7.37280E+000	 -8.64913E-005	 -8.45703E-005	 -1.87564E-004	 -2.46994E-005
  8.19200E+000	 -3.89573E-005	 -2.44744E-005	  9.11154E-005	 -2.38372E-005
  9.01120E+000	 -1.48777E-004	 -1.07970E-004	 -2.22057E-004	 -6.41851E-005
  9.83040E+000	  1.63870E-004	  1.35736E-004	  1.39496E-004	  1.71216E-004
  1.06496E+001	 -2.09078E-004	 -2.06188E-004	 -8.14082E-005	 -1.97266E-004
  1.14688E+001	 -2.71586E-005	  1.76481E-005	 -1.05322E-004	  5.06706E-005
  1.22880E+001	  1.37636E-004	  2.34170E-005	  1.78843E-004	  1.40600E-004
  1.31072E+001	  7.76065E-005	  2.88140E-005	  7.78855E-005	  9.60655E-005
  1.47456E+001	 -1.35686E-004	 -1.55608E-004	 -2.33940E-004	 -1.35185E-004
  1.63840E+001	  6.39206E-005	  9.92127E-005	  8.09097E-005	  1.48543E-004
  1.80224E+001	 -8.41332E-005	 -9.08922E-005	 -1.83344E-005	 -1.64400E-004
  1.96608E+001	  5.92056E-005	  7.86639E-005	  2.39239E-005	  6.79773E-005
  2.12992E+001	 -1.05512E-004	 -9.77227E-005	 -1.64576E-004	 -1.94272E-005
  2.29376E+001	 -1.35326E-004	 -1.78144E-004	 -2.25599E-004	 -1.05432E-004
  2.45760E+001	  6.97019E-005	  1.13024E-004	  1.86240E-005	  1.19006E-004
  2.62144E+001	 -9.92485E-005	 -1.08224E-004	 -1.22291E-004	 -4.17588E-005
  2.94912E+001	 -4.99257E-005	 -1.14116E-004	 -6.72441E-005	 -2.96050E-005
  3.27680E+001	  4.74233E-005	  1.45358E-005	  5.90858E-005	  2.19411E-005
  3.60448E+001	  1.11670E-004	  9.49294E-005	  1.85722E-004	  8.73015E-005
  3.93216E+001	  3.91664E-006	  5.54250E-005	  2.49300E-005	 -8.30914E-007
  4.25984E+001	 -1.04751E-004	 -1.34569E-004	 -1.01815E-004	 -7.90826E-005
  4.58752E+001	  5.09607E-005	  5.93656E-005	  1.13619E-004	  3.52161E-005
  4.91520E+001	 -1.88025E-005	 -1.14744E-005	 -4.35529E-006	 -3.01194E-005
  5.24288E+001	  8.02354E-006	 -1.08885E-005	 -6.33177E-006	  1.02778E-005
  5.89824E+001	  3.58285E-005	 -8.43002E-007	  1.65270E-005	  3.92077E-005
  6.55360E+001	  6.39907E-005	  5.43768E-005	  7.20857E-005	  6.62827E-005
  7.20896E+001	 -2.12831E-005	  2.31127E-006	  1.79944E-005	 -2.07028E-005
  7.86432E+001	  3.14239E-005	 -7.85870E-006	  2.68921E-005	  4.08213E-005
  8.51968E+001	 -1.52154E-005	 -5.72029E-006	 -1.64386E-005	 -6.41902E-006
  9.17504E+001	  4.40961E-006	  2.35526E-005	 -2.59766E-005	  6.35839E-005
  9.83040E+001	  2.04865E-005	 -2.25181E-005	  2.60314E-005	  1.24705E-006
  1.04858E+002	  4.86551E-005	  4.70841E-005	  5.33208E-005	  2.47190E-005
  1.17965E+002	 -3.43894E-005	 -3.67034E-005	 -1.74978E-005	 -4.41738E-005
  1.31072E+002	 -4.71458E-005	 -7.14108E-005	 -7.03190E-005	 -3.95597E-005
  1.44179E+002	 -9.49160E-007	  1.88662E-005	  2.47470E-005	 -7.73525E-006
  1.57286E+002	 -2.74396E-005	 -3.63544E-005	 -1.16345E-005	 -2.21259E-005
  1.70394E+002	 -5.51627E-006	 -3.14129E-005	 -1.32311E-005	 -6.30910E-006
  1.83501E+002	  6.67736E-006	  2.68701E-005	  1.60892E-006	  1.95329E-005
  1.96608E+002	  2.14196E-005	  2.11640E-005	  3.37384E-005	  1.96601E-005
  2.09715E+002	  6.29659E-006	 -2.26551E-005	  1.47655E-005	  1.21394E-006
  2.35930E+002	 -7.54509E-006	 -4.17682E-006	  1.15760E-005	 -2.92343E-005
  2.62144E+002	  9.36181E-006	  2.76723E-005	  1.91037E-005	  3.97680E-006
  2.88358E+002	  5.45491E-006	  9.67304E-007	  1.11829E-006	  2.48308E-005
  3.14573E+002	  2.47195E-005	  2.12815E-005	  2.86220E-005	  2.38212E-005
  3.40787E+002	  2.55014E-006	  9.23612E-006	  7.06992E-006	 -1.18030E-005
  3.67002E+002	  9.96515E-006	  1.24385E-005	  9.31061E-006	 -7.96479E-007
  3.93216E+002	  1.43756E-005	  2.00305E-005	  1.43311E-005	  1.24748E-005
  4.19430E+002	 -3.28120E-006	 -1.17704E-005	 -7.62276E-007	 -1.33866E-005
  4.71859E+002	  6.19907E-007	 -6.87573E-006	  1.91849E-005	 -2.07914E-005
  5.24288E+002	 -2.47056E-005	 -3.40881E-005	 -4.48422E-005	 -2.21821E-005
  5.76717E+002	  1.05173E-005	 -3.71033E-006	  8.84709E-006	  1.33641E-005
  6.29146E+002	  1.83855E-005	  9.58468E-006	  6.49203E-006	  2.35318E-005
  6.81574E+002	  3.95736E-007	 -1.08837E-005	 -1.66588E-005	  1.48967E-005
  7.34003E+002	 -1.71000E-005	 -8.33877E-007	 -2.03327E-005	 -2.60793E-005
  7.86432E+002	  1.21213E-006	  1.59907E-005	 -3.06944E-006	  1.59707E-006
  8.38861E+002	 -1.40387E-005	 -9.57961E-006	 -1.84461E-005	 -5.66348E-006
  9.43718E+002	 -7.68425E-006	 -2.38915E-006	 -5.74370E-006	 -1.00893E-005
  1.04858E+003	  1.54844E-005	  1.73074E-005	  9.17702E-006	  1.24058E-005
  1.15343E+003	  8.64900E-006	  6.54507E-006	  8.35648E-006	  1.46881E-005
  1.25829E+003	 -1.23306E-005	 -4.36078E-006	 -1.34741E-005	 -6.75858E-006
  1.36315E+003	  3.53136E-006	  1.60203E-006	  3.76892E-006	  5.57253E-006
  1.46801E+003	  1.21304E-005	  1.37969E-005	  5.56472E-006	  2.34922E-005
  1.57286E+003	  1.19144E-005	  3.55369E-006	 -1.40641E-006	  1.96417E-005
  1.67772E+003	 -5.18544E-006	 -4.81197E-006	 -1.52118E-005	  1.28423E-006
  1.88744E+003	 -7.68445E-007	 -3.07501E-006	  1.85911E-006	 -6.79885E-006
  2.09715E+003	  6.02197E-007	 -4.46232E-006	  3.68759E-006	  7.15709E-006
  2.30687E+003	 -5.66527E-006	 -8.03211E-006	 -1.31094E-005	  4.58169E-006
  2.51658E+003	  3.47727E-006	  6.75185E-006	  3.83349E-006	  7.24970E-006
  2.72630E+003	  3.63643E-006	  5.52438E-006	  3.94057E-006	  6.06877E-006
  2.93601E+003	  7.50581E-006	  1.01418E-005	  1.13297E-006	  5.59051E-006
  3.14573E+003	  4.63187E-006	  4.20365E-006	  1.04519E-005	 -3.93880E-006
  3.35544E+003	 -4.20763E-006	  5.44254E-006	 -1.76371E-007	 -1.01527E-005
  3.77487E+003	 -8.11469E-007	 -1.43925E-006	 -1.26242E-007	  3.13052E-006
  4.19430E+003	 -8.69481E-006	 -1.09683E-005	 -8.42522E-006	 -1.28905E-005
  4.61373E+003	  1.83514E-006	  3.51646E-006	 -3.35817E-006	  2.93930E-006
  5.03317E+003	  6.17798E-006	  5.82025E-006	  2.50124E-006	  9.99201E-006
  5.45260E+003	  4.37402E-006	  8.56510E-006	  8.59027E-006	  9.96947E-007
  5.87203E+003	 -2.90479E-006	 -3.33986E-006	  2.62224E-006	 -1.02006E-005
  6.29146E+003	  3.16477E-006	  1.06459E-006	  2.25487E-006	  3.67375E-006
  6.71089E+003	 -4.95765E-006	 -6.05987E-006	 -8.90909E-006	 -6.37471E-006
  7.54975E+003	 -4.00270E-006	 -4.51540E-006	 -4.20320E-006	 -5.82689E-006
  8.38861E+003	  4.71142E-006	  5.56856E-006	  1.09501E-005	  8.69638E-007
  9.22747E+003	  6.02377E-006	  8.39998E-006	  5.07613E-006	  4.51698E-006
  1.00663E+004	  5.65986E-006	  7.79665E-006	  3.05347E-006	  5.06145E-006
  1.09052E+004	 -2.03671E-007	 -2.04487E-006	  4.40864E-006	 -3.23819E-006
  1.17441E+004	 -2.11365E-007	  5.72477E-006	 -1.93449E-007	 -1.80667E-006

"Count Rate"
       0.19531	     216.76311	     257.27408	     216.76311	     257.27408
       0.39063	     219.37341	     260.60605	     219.37341	     260.60605
       0.58594	     215.22763	     254.16728	     215.22763	     254.16728
       0.78125	     219.84941	     260.83124	     219.84941	     260.83124
       0.97656	     217.70486	     256.97720	     217.70486	     256.97720
       1.17188	     217.35681	     260.49857	     217.35681	     260.49857
       1.36719	     213.03189	     252.77000	     213.03189	     252.77000
       1.56250	     218.60567	     260.35013	     218.60567	     260.35013
       1.75781	     213.62561	     256.95673	     213.62561	     256.95673
       1.95313	     217.37729	     260.22217	     217.37729	     260.22217
       2.14844	     219.21986	     261.91632	     219.21986	     261.91632
       2.34375	     210.73380	     249.40732	     210.73380	     249.40732
       2.53906	     218.53914	     258.80441	     218.53914	     258.80441
       2.73438	     221.15968	     259.68475	     221.15968	     259.68475
       2.92969	     215.66267	     252.82118	     215.66267	     252.82118
       3.12500	     216.52766	     258.62018	     216.52766	     258.62018
       3.32031	     218.36000	     260.36038	     218.36000	     260.36038
       3.51563	     217.26981	     259.19852	     217.26981	     259.19852
       3.71094	     216.38435	     259.77689	     216.38435	     259.77689
       3.90625	     215.50912	     261.43008	     215.50912	     261.43008
       4.10156	     214.23981	     255.15511	     214.23981	     255.15511
       4.29688	     217.86353	     255.50827	     217.86353	     255.50827
       4.49219	     220.27934	     263.92780	     220.27934	     263.92780
       4.68750	     221.22110	     258.93237	     221.22110	     258.93237
       4.88281	     220.36124	     262.41791	     220.36124	     262.41791
       5.07813	     217.53595	     257.57092	     217.53595	     257.57092
       5.27344	     216.99854	     257.87802	     216.99854	     257.87802
       5.46875	     216.62491	     256.55240	     216.62491	     256.55240
       5.66406	     220.89352	     262.35651	     220.89352	     262.35651
       5.85938	     217.39777	     259.08594	     217.39777	     259.08594
       6.05469	     218.97418	     261.39938	     218.97418	     261.39938
       6.25000	     220.54037	     261.97263	     220.54037	     261.97263
       6.44531	     215.58078	     254.85825	     215.58078	     254.85825
       6.64063	     217.68950	     261.57339	     217.68950	     261.57339
       6.83594	     216.26663	     257.37643	     216.26663	     257.37643
       7.03125	     218.93324	     262.48444	     218.93324	     262.48444
       7.22656	     217.54619	     257.84732	     217.54619	     257.84732
       7.42188	     216.12332	     260.15564	     216.12332	     260.15564
       7.61719	     216.05167	     258.23630	     216.05167	     258.23630
       7.81250	     216.17963	     255.45197	     216.17963	     255.45197
       8.00781	     220.88330	     263.66165	     220.88330	     263.66165
       8.20313	     219.78287	     260.03793	     219.78287	     260.03793
       8.39844	     218.15526	     258.84537	     218.15526	     258.84537
       8.59375	     216.81429	     260.69305	     216.81429	     260.69305
       8.78906	     215.29929	     258.67136	     215.29929	     258.67136
       8.98438	     218.47260	     259.64893	     218.47260	     259.64893
       9.17969	     218.80017	     259.81784	     218.80017	     259.81784
       9.37500	     219.17380	     258.68158	     219.17380	     258.68158
       9.57031	     219.13286	     262.19781	     219.13286	     262.19781
       9.76563	     216.09261	     259.32648	     216.09261	     259.32648
       9.96094	     216.34340	     259.13712	     216.34340	     259.13712
      10.15625	     220.71439	     260.86197	     220.71439	     260.86197
      10.35156	     216.96783	     256.75711	     216.96783	     256.75711
      10.54688	     214.55202	     256.25552	     214.55202	     256.25552
      10.74219	     216.96271	     259.22925	     216.96271	     259.22925
      10.93750	     216.09261	     258.34891	     216.09261	     258.34891
      11.13281	     218.70804	     259.99185	     218.70804	     259.99185
      11.32813	     218.02731	     261.95215	     218.02731	     261.95215
      11.52344	     219.90570	     258.72253	     219.90570	     258.72253
      11.71875	     217.49501	     261.39426	     217.49501	     261.39426
      11.91406	     216.34853	     257.97015	     216.34853	     257.97015
      12.10938	     211.77792	     251.00421	     211.77792	     251.00421
      12.30469	     220.18210	     260.27338	     220.18210	     260.27338
      12.50000	     216.28198	     255.54410	     216.28198	     255.54410
      12.69531	     214.19374	     254.16728	     214.19374	     254.16728
      12.89063	     215.03825	     256.42444	     215.03825	     256.42444
      13.08594	     216.45088	     258.12881	     216.45088	     258.12881
      13.28125	     216.03632	     258.73276	     216.03632	     258.73276
      13.47656	     218.06825	     259.54657	     218.06825	     259.54657
      13.67188	     217.42336	     259.10641	     217.42336	     259.10641
      13.86719	     215.58591	     253.43538	     215.58591	     253.43538
      14.06250	     219.55766	     261.76788	     219.55766	     261.76788
      14.25781	     219.78799	     262.43326	     219.78799	     262.43326
      14.45313	     217.93518	     258.57922	     217.93518	     258.57922
      14.64844	     216.57884	     259.54657	     216.57884	     259.54657
      14.84375	     219.07143	     257.84732	     219.07143	     257.84732
      15.03906	     218.26787	     260.11469	     218.26787	     260.11469
      15.23438	     217.78163	     258.28235	     217.78163	     258.28235
      15.42969	     219.61908	     262.13129	     219.61908	     262.13129
      15.62500	     213.89175	     257.69888	     213.89175	     257.69888
      15.82031	     218.38559	     257.65793	     218.38559	     257.65793
      16.01563	     217.49501	     258.35913	     217.49501	     258.35913
      16.21094	     218.71315	     259.31625	     218.71315	     259.31625
      16.40625	     218.61079	     259.86389	     218.61079	     259.86389
      16.60156	     216.12843	     258.62527	     216.12843	     258.62527
      16.79688	     221.13409	     261.92145	     221.13409	     261.92145
      16.99219	     221.90182	     262.10059	     221.90182	     262.10059
      17.18750	     221.19038	     262.85809	     221.19038	     262.85809
      17.38281	     216.24615	     255.81024	     216.24615	     255.81024
      17.57813	     217.63832	     258.22095	     217.63832	     258.22095
      17.77344	     221.10338	     263.43134	     221.10338	     263.43134
      17.96875	     216.73239	     258.41544	     216.73239	     258.41544
      18.16406	     217.30052	     257.19217	     217.30052	     257.19217
      18.35938	     218.61079	     257.38156	     218.61079	     257.38156
      18.55469	     220.06438	     263.98923	     220.06438	     263.98923
      18.75000	     219.29663	     258.16977	     219.29663	     258.16977
      18.94531	     216.13356	     257.11539	     216.13356	     257.11539
      19.14063	     217.94542	     261.17416	     217.94542	     261.17416
      19.33594	     213.10867	     253.22552	     213.10867	     253.22552
      19.53125	     219.24545	     260.02258	     219.24545	     260.02258
      19.72656	     216.27174	     260.63165	     216.27174	     260.63165
      19.92188	     217.79698	     260.21194	     217.79698	     260.21194
      20.11719	     218.56984	     259.50562	     218.56984	     259.50562
      20.31250	     216.96271	     260.00720	     216.96271	     260.00720
      20.50781	     222.21916	     263.02698	     222.21916	     263.02698
      20.70313	     217.61273	     258.33865	     217.61273	     258.33865
      20.89844	     220.59666	     262.37695	     220.59666	     262.37695
      21.09375	     220.05414	     256.82367	     220.05414	     256.82367
      21.28906	     218.34976	     258.62018	     218.34976	     258.62018
      21.48438	     217.99149	     258.41031	     217.99149	     258.41031
      21.67969	     219.10214	     261.75766	     219.10214	     261.75766
      21.87500	     212.78110	     256.33743	     212.78110	     256.33743
      22.07031	     216.72728	     256.06104	     216.72728	     256.06104
      22.26563	     214.47523	     254.96062	     214.47523	     254.96062
      22.46094	     217.60760	     258.85049	     217.60760	     258.85049
      22.65625	     219.77263	     259.87927	     219.77263	     259.87927
      22.85156	     213.42599	     252.11487	     213.42599	     252.11487
      23.04688	     213.30316	     258.83514	     213.30316	     258.83514
      23.24219	     214.25516	     254.88896	     214.25516	     254.88896
      23.43750	     221.58449	     262.62265	     221.58449	     262.62265
      23.63281	     221.51796	     259.90997	     221.51796	     259.90997
      23.82813	     217.53084	     258.65088	     217.53084	     258.65088
      24.02344	     214.53154	     255.09369	     214.53154	     255.09369
      24.21875	     216.94736	     259.07059	     216.94736	     259.07059
      24.41406	     214.57761	     257.75006	     214.57761	     257.75006
      24.60938	     223.81093	     264.08646	     223.81093	     264.08646
      24.80469	     221.68686	     259.12686	     221.68686	     259.12686
      25.00000	     217.09579	     256.93625	     217.09579	     256.93625
      25.19531	     214.44965	     256.81342	     214.44965	     256.81342
      25.39063	     220.16673	     260.53439	     220.16673	     260.53439
      25.58594	     221.38489	     263.18054	     221.38489	     263.18054
      25.78125	     218.19109	     259.54657	     218.19109	     259.54657
      25.97656	     218.90253	     257.52487	     218.90253	     257.52487
      26.17188	     223.03807	     262.16711	     223.03807	     262.16711
      26.36719	     220.11555	     262.23364	     220.11555	     262.23364
      26.56250	     219.28639	     259.99185	     219.28639	     259.99185
      26.75781	     218.30370	     260.31943	     218.30370	     260.31943
      26.95313	     218.79504	     261.08206	     218.79504	     261.08206
      27.14844	     218.09384	     259.39813	     218.09384	     259.39813
      27.34375	     213.57954	     255.86143	     213.57954	     255.86143
      27.53906	     217.39264	     256.66501	     217.39264	     256.66501
      27.73438	     219.06631	     259.76666	     219.06631	     259.76666
      27.92969	     220.72462	     263.03210	     220.72462	     263.03210
      28.12500	     218.17574	     260.50369	     218.17574	     260.50369
      28.32031	     219.18404	     260.29382	     219.18404	     260.29382
      28.51563	     218.10921	     257.76541	     218.10921	     257.76541
      28.71094	     222.02979	     262.76083	     222.02979	     262.76083
      28.90625	     221.91206	     268.11963	     221.91206	     268.11963
      29.10156	     221.35930	     266.93222	     221.35930	     266.93222
      29.29688	     219.47066	     258.58945	     219.47066	     258.58945
      29.49219	     216.84499	     260.90289	     216.84499	     260.90289
      29.68750	     218.47260	     259.07059	     218.47260	     259.07059
      29.88281	     218.64149	     259.14224	     218.64149	     259.14224
      30.07813	     217.26981	     259.25482	     217.26981	     259.25482
      30.27344	     215.94418	     257.10004	     215.94418	     257.10004
      30.46875	     223.85188	     264.39355	     223.85188	     264.39355
      30.66406	     221.64592	     264.60852	     221.64592	     264.60852
      30.85938	     218.25763	     261.97263	     218.25763	     261.97263
      31.05469	     215.25833	     258.45639	     215.25833	     258.45639
      31.25000	     213.48743	     258.41031	     213.48743	     258.41031
      31.44531	     215.03825	     255.65158	     215.03825	     255.65158
      31.64063	     217.43359	     258.68158	     217.43359	     258.68158
      31.83594	     221.72269	     262.52539	     221.72269	     262.52539
      32.03125	     216.62491	     258.95798	     216.62491	     258.95798
      32.22656	     215.45795	     255.14999	     215.45795	     255.14999
      32.42188	     215.97488	     257.14099	     215.97488	     257.14099
      32.61719	     215.11502	     255.80513	     215.11502	     255.80513
      32.81250	     218.31393	     261.06158	     218.31393	     261.06158
      33.00781	     220.43800	     260.48834	     220.43800	     260.48834
      33.20313	     217.82259	     261.45056	     217.82259	     261.45056
      33.39844	     219.19427	     261.35843	     219.19427	     261.35843
      33.59375	     215.29416	     257.92407	     215.29416	     257.92407
      33.78906	     223.76999	     265.78571	     223.76999	     265.78571
      33.98438	     218.60056	     260.88754	     218.60056	     260.88754
      34.17969	     219.33759	     258.85562	     219.33759	     258.85562
      34.37500	     217.17767	     259.06546	     217.17767	     259.06546
      34.57031	     217.28516	     257.90363	     217.28516	     257.90363
      34.76563	     220.59666	     263.28802	     220.59666	     263.28802
      34.96094	     215.65244	     256.07129	     215.65244	     256.07129
      35.15625	     219.33246	     259.27530	     219.33246	     259.27530
      35.35156	     216.83987	     260.51392	     216.83987	     260.51392
      35.54688	     219.93642	     263.43643	     219.93642	     263.43643
      35.74219	     222.13214	     263.46716	     222.13214	     263.46716
      35.93750	     219.34782	     261.91632	     219.34782	     261.91632
      36.13281	     218.48795	     257.10004	     218.48795	     257.10004
      36.32813	     216.95760	     257.34573	     216.95760	     257.34573
      36.52344	     215.66267	     256.38348	     215.66267	     256.38348
      36.71875	     216.43553	     257.85754	     216.43553	     257.85754
      36.91406	     222.01955	     262.92462	     222.01955	     262.92462
      37.10938	     219.43994	     260.38596	     219.43994	     260.38596
      37.30469	     218.17062	     256.86972	     218.17062	     256.86972
      37.50000	     216.08237	     258.76859	     216.08237	     258.76859
      37.69531	     216.68633	     256.42444	     216.68633	     256.42444
      37.89063	     216.20522	     257.92920	     216.20522	     257.92920
      38.08594	     219.94153	     263.62070	     219.94153	     263.62070
      38.28125	     214.95636	     259.30090	     214.95636	     259.30090
      38.47656	     217.11626	     258.65088	     217.11626	     258.65088
      38.67188	     215.12015	     257.00790	     215.12015	     257.00790
      38.86719	     218.90765	     257.30991	     218.90765	     257.30991
      39.06250	     218.82576	     263.32895	     218.82576	     263.32895
      39.25781	     217.45407	     260.43204	     217.45407	     260.43204
      39.45313	     218.25763	     261.06668	     218.25763	     261.06668
      39.64844	     217.47453	     256.92603	     217.47453	     256.92603
      39.84375	     220.40218	     263.07816	     220.40218	     263.07816
      40.03906	     218.20132	     258.47687	     218.20132	     258.47687
      40.23438	     216.20522	     256.37326	     216.20522	     256.37326
      40.42969	     220.04901	     261.85489	     220.04901	     261.85489
      40.62500	     218.39583	     261.94702	     218.39583	     261.94702
      40.82031	     216.51231	     257.33548	     216.51231	     257.33548
      41.01563	     223.15579	     263.36478	     223.15579	     263.36478
      41.21094	     218.59543	     259.47491	     218.59543	     259.47491
      41.40625	     218.65173	     260.15051	     218.65173	     260.15051
      41.60156	     218.37024	     259.22925	     218.37024	     259.22925
      41.79688	     218.23715	     257.18704	     218.23715	     257.18704
      41.99219	     217.68439	     256.57288	     217.68439	     256.57288
      42.18750	     217.78163	     262.72501	     217.78163	     262.72501
      42.38281	     218.55449	     262.08011	     218.55449	     262.08011
      42.57813	     217.54108	     257.81659	     217.54108	     257.81659
      42.77344	     216.72728	     258.62018	     216.72728	     258.62018
      42.96875	     220.79117	     259.14224	     220.79117	     259.14224
      43.16406	     216.94736	     257.77567	     216.94736	     257.77567
      43.35938	     220.02342	     260.03793	     220.02342	     260.03793
      43.55469	     219.07655	     260.79031	     219.07655	     260.79031
      43.75000	     218.31905	     259.23434	     218.31905	     259.23434
      43.94531	     215.65244	     258.25165	     215.65244	     258.25165
      44.14063	     214.59296	     255.35472	     214.59296	     255.35472
      44.33594	     219.01514	     265.10498	     219.01514	     265.10498
      44.53125	     219.35294	     262.20807	     219.35294	     262.20807
      44.72656	     215.18668	     258.21069	     215.18668	     258.21069
      44.92188	     217.68439	     258.68158	     217.68439	     258.68158
      45.11719	     213.84570	     256.20435	     213.84570	     256.20435
      45.31250	     217.74069	     259.00916	     217.74069	     259.00916
      45.50781	     214.88470	     257.08981	     214.88470	     257.08981
      45.70313	     215.70874	     257.31500	     215.70874	     257.31500
      45.89844	     217.33635	     259.14734	     217.33635	     259.14734
      46.09375	     216.84499	     260.44226	     216.84499	     260.44226
      46.28906	     220.12068	     258.35913	     220.12068	     258.35913
      46.48438	     219.16869	     262.24390	     219.16869	     262.24390
      46.67969	     220.58131	     260.72888	     220.58131	     260.72888
      46.87500	     224.04637	     262.10568	     224.04637	     262.10568
      47.07031	     219.08167	     261.49152	     219.08167	     261.49152
      47.26563	     217.40800	     257.39178	     217.40800	     257.39178
      47.46094	     216.87059	     259.49539	     216.87059	     259.49539
      47.65625	     218.65686	     260.96945	     218.65686	     260.96945
      47.85156	     217.37729	     259.13712	     217.37729	     259.13712
      48.04688	     218.54938	     261.17416	     218.54938	     261.17416
      48.24219	     215.74968	     256.65988	     215.74968	     256.65988
      48.43750	     215.61661	     259.24973	     215.61661	     259.24973
      48.63281	     221.20062	     262.91949	     221.20062	     262.91949
      48.82813	     216.50208	     261.48639	     216.50208	     261.48639
      49.02344	     223.09950	     264.90540	     223.09950	     264.90540
      49.21875	     218.31905	     260.35013	     218.31905	     260.35013
      49.41406	     218.92812	     261.17416	     218.92812	     261.17416
      49.60938	     220.07462	     261.77301	     220.07462	     261.77301

Monitor Diode	1632780.53
"StandardDeviation"
  3.12500E-006	  1.34481E-002
  6.25000E-006	  1.34481E-002
  9.37500E-006	  1.34479E-002
  1.25000E-005	  1.34480E-002
  1.56250E-005	  1.34480E-002
  1.87500E-005	  1.34479E-002
  2.18750E-005	  1.34480E-002
  2.50000E-005	  1.34480E-002
  2.81250E-005	  1.34480E-002
  3.12500E-005	  1.34225E-002
  3.43750E-005	  1.33355E-002
  3.75000E-005	  1.33680E-002
  4.06250E-005	  1.33713E-002
  4.37500E-005	  1.33240E-002
  4.68750E-005	  1.33825E-002
  5.00000E-005	  9.45877E-003
  5.62500E-005	  9.45931E-003
  6.25000E-005	  9.45375E-003
  6.87500E-005	  9.45537E-003
  7.50000E-005	  9.47419E-003
  8.12500E-005	  9.51757E-003
  8.75000E-005	  9.42723E-003
  9.37500E-005	  9.45636E-003
  1.00000E-004	  6.70334E-003
  1.12500E-004	  6.68989E-003
  1.25000E-004	  6.70463E-003
  1.37500E-004	  6.70589E-003
  1.50000E-004	  6.69331E-003
  1.62500E-004	  6.69700E-003
  1.75000E-004	  6.69220E-003
  1.87500E-004	  6.69937E-003
  2.00000E-004	  4.75574E-003
  2.25000E-004	  4.75600E-003
  2.50000E-004	  4.75070E-003
  2.75000E-004	  4.74875E-003
  3.00000E-004	  4.74354E-003
  3.25000E-004	  4.74641E-003
  3.50000E-004	  4.73913E-003
  3.75000E-004	  4.74588E-003
  4.00000E-004	  3.38094E-003
  4.50000E-004	  3.37539E-003
  5.00000E-004	  3.38313E-003
  5.50000E-004	  3.37724E-003
  6.00000E-004	  3.37161E-003
  6.50000E-004	  3.37791E-003
  7.00000E-004	  3.37438E-003
  7.50000E-004	  3.37083E-003
  8.00000E-004	  2.41919E-003
  9.00000E-004	  2.41460E-003
  1.00000E-003	  2.41448E-003
  1.10000E-003	  2.41270E-003
  1.20000E-003	  2.41125E-003
  1.30000E-003	  2.41146E-003
  1.40000E-003	  2.40851E-003
  1.50000E-003	  2.41043E-003
  1.60000E-003	  1.74711E-003
  1.80000E-003	  1.74661E-003
  2.00000E-003	  1.74415E-003
  2.20000E-003	  1.74163E-003
  2.40000E-003	  1.74003E-003
  2.60000E-003	  1.73899E-003
  2.80000E-003	  1.73841E-003
  3.00000E-003	  1.73582E-003
  3.20000E-003	  1.28527E-003
  3.60000E-003	  1.28236E-003
  4.00000E-003	  1.28057E-003
  4.40000E-003	  1.27751E-003
  4.80000E-003	  1.27548E-003
  5.20000E-003	  1.27277E-003
  5.60000E-003	  1.26982E-003
  6.00000E-003	  1.26728E-003
  6.40000E-003	  9.69164E-004
  7.20000E-003	  9.64578E-004
  8.00000E-003	  9.60558E-004
  8.80000E-003	  9.56380E-004
  9.60000E-003	  9.52400E-004
  1.04000E-002	  9.48650E-004
  1.12000E-002	  9.44791E-004
  1.20000E-002	  9.40847E-004
  1.28000E-002	  7.49810E-004
  1.44000E-002	  7.42619E-004
  1.60000E-002	  7.36158E-004
  1.76000E-002	  7.29671E-004
  1.92000E-002	  7.23804E-004
  2.08000E-002	  7.18127E-004
  2.24000E-002	  7.12935E-004
  2.40000E-002	  7.07626E-004
  2.56000E-002	  5.86970E-004
  2.88000E-002	  5.77245E-004
  3.20000E-002	  5.68923E-004
  3.52000E-002	  5.61208E-004
  3.84000E-002	  5.54165E-004
  4.16000E-002	  5.48031E-004
  4.48000E-002	  5.42486E-004
  4.80000E-002	  5.37375E-004
  5.12000E-002	  4.61520E-004
  5.76000E-002	  4.53101E-004
  6.40000E-002	  4.46931E-004
  7.04000E-002	  4.41725E-004
  7.68000E-002	  4.37654E-004
  8.32000E-002	  4.34472E-004
  8.96000E-002	  4.32018E-004
  9.60000E-002	  4.22576E-004
  1.02400E-001	  3.74972E-004
  1.15200E-001	  3.74972E-004
  1.28000E-001	  3.74972E-004
  1.40800E-001	  3.74972E-004
  1.53600E-001	  3.74972E-004
  1.66400E-001	  3.74972E-004
  1.79200E-001	  3.74972E-004
  1.92000E-001	  3.74972E-004
  2.04800E-001	  3.35134E-004
  2.30400E-001	  3.35134E-004
  2.56000E-001	  3.35134E-004
  2.81600E-001	  3.35134E-004
  3.07200E-001	  3.35134E-004
  3.32800E-001	  3.35134E-004
  3.58400E-001	  3.35134E-004
  3.84000E-001	  3.35134E-004
  4.09600E-001	  2.92133E-004
  4.60800E-001	  2.92133E-004
  5.12000E-001	  2.92133E-004
  5.63200E-001	  2.92133E-004
  6.14400E-001	  2.92133E-004
  6.65600E-001	  2.92133E-004
  7.16800E-001	  2.92133E-004
  7.68000E-001	  2.92133E-004
  8.19200E-001	  2.49404E-004
  9.21600E-001	  2.49404E-004
  1.02400E+000	  2.49404E-004
  1.12640E+000	  2.49404E-004
  1.22880E+000	  2.49404E-004
  1.33120E+000	  2.49404E-004
  1.43360E+000	  2.49404E-004
  1.53600E+000	  2.49404E-004
  1.63840E+000	  1.96485E-004
  1.84320E+000	  1.96485E-004
  2.04800E+000	  1.96485E-004
  2.25280E+000	  1.96485E-004
  2.45760E+000	  1.96485E-004
  2.66240E+000	  1.96485E-004
  2.86720E+000	  1.96485E-004
  3.07200E+000	  1.96485E-004
  3.27680E+000	  1.46896E-004
  3.68640E+000	  1.46896E-004
  4.09600E+000	  1.46896E-004
  4.50560E+000	  1.46896E-004
  4.91520E+000	  1.46896E-004
  5.32480E+000	  1.46896E-004
  5.73440E+000	  1.46896E-004
  6.14400E+000	  1.46896E-004
  6.55360E+000	  1.06705E-004
  7.37280E+000	  1.06705E-004
  8.19200E+000	  1.06705E-004
  9.01120E+000	  1.06705E-004
  9.83040E+000	  1.06705E-004
  1.06496E+001	  1.06705E-004
  1.14688E+001	  1.06705E-004
  1.22880E+001	  1.06705E-004
  1.31072E+001	  7.64542E-005
  1.47456E+001	  7.64542E-005
  1.63840E+001	  7.64542E-005
  1.80224E+001	  7.64542E-005
  1.96608E+001	  7.64542E-005
  2.12992E+001	  7.64542E-005
  2.29376E+001	  7.64542E-005
  2.45760E+001	  7.64542E-005
  2.62144E+001	  5.44155E-005
  2.94912E+001	  5.44155E-005
  3.27680E+001	  5.44155E-005
  3.60448E+001	  5.44155E-005
  3.93216E+001	  5.44155E-005
  4.25984E+001	  5.44155E-005
  4.58752E+001	  5.44155E-005
  4.91520E+001	  5.44155E-005
  5.24288E+001	  3.86028E-005
  5.89824E+001	  3.86028E-005
  6.55360E+001	  3.86028E-005
  7.20896E+001	  3.86028E-005
  7.86432E+001	  3.86028E-005
  8.51968E+001	  3.86028E-005
  9.17504E+001	  3.86028E-005
  9.83040E+001	  3.86028E-005
  1.04858E+002	  2.73406E-005
  1.17965E+002	  2.73406E-005
  1.31072E+002	  2.73406E-005
  1.44179E+002	  2.73406E-005
  1.57286E+002	  2.73406E-005
  1.70394E+002	  2.73406E-005
  1.83501E+002	  2.73406E-005
  1.96608E+002	  2.73406E-005
  2.09715E+002	  1.93484E-005
  2.35930E+002	  1.93484E-005
  2.62144E+002	  1.93484E-005
  2.88358E+002	  1.93484E-005
  3.14573E+002	  1.93484E-005
  3.40787E+002	  1.93484E-005
  3.67002E+002	  1.93484E-005
  3.93216E+002	  1.93484E-005
  4.19430E+002	  1.36869E-005
  4.71859E+002	  1.36869E-005
  5.24288E+002	  1.36869E-005
  5.76717E+002	  1.36869E-005
  6.29146E+002	  1.36869E-005
  6.81574E+002	  1.36869E-005
  7.34003E+002	  1.36869E-005
  7.86432E+002	  1.36869E-005
  8.38861E+002	  9.68007E-006
  9.43718E+002	  9.68007E-006
  1.04858E+003	  9.68007E-006
  1.15343E+003	  9.68007E-006
  1.25829E+003	  9.68007E-006
  1.36315E+003	  9.68007E-006
  1.46801E+003	  9.68007E-006
  1.57286E+003	  9.68007E-006
  1.67772E+003	  6.84553E-006
  1.88744E+003	  6.84553E-006
  2.09715E+003	  6.84553E-006
  2.30687E+003	  6.84553E-006
  2.51658E+003	  6.84553E-006
  2.72630E+003	  6.84553E-006
  2.93601E+003	  6.84553E-006
  3.14573E+003	  6.84553E-006
  3.35544E+003	  4.84077E-006
  3.77487E+003	  4.84077E-006
  4.19430E+003	  4.84077E-006
  4.61373E+003	  4.84077E-006
  5.03317E+003	  4.84077E-006
  5.45260E+003	  4.84077E-006
  5.87203E+003	  4.84077E-006
  6.29146E+003	  4.84077E-006
  6.71089E+003	  3.42303E-006
  7.54975E+003	  3.42303E-006
  8.38861E+003	  3.42303E-006
  9.22747E+003	  3.42303E-006
  1.00663E+004	  3.42303E-006
  1.09052E+004	  3.42303E-006
  1.17441E+004	  3.42303E-006
