ALV-7004 or ALV-7004/FAST Data
Date :	"3/27/2010"
Time :	"10:34:35 AM"
Samplename : 	"BSA 1 g/l in YCl3 8.3mM"
SampMemo(0) : 	""
SampMemo(1) : 	""
SampMemo(2) : 	""
SampMemo(3) : 	""
SampMemo(4) : 	""
SampMemo(5) : 	""
SampMemo(6) : 	""
SampMemo(7) : 	""
SampMemo(8) : 	""
SampMemo(9) : 	""
Temperature [K] :	     295.66026
Viscosity [cp]  :	       0.94310
Refractive Index:	       1.33200
Wavelength [nm] :	     632.80000
Angle [°]       :	      30.00000
Duration [s]    :	        70
Runs            :	         1
Mode            :	"C-CH0/1+1/0"
MeanCR0 [kHz]   :	     107.12142
MeanCR1 [kHz]   :	     131.49372
MeanCR2 [kHz]   :	       0.00000
MeanCR3 [kHz]   :	       0.00000

"Correlation"
  3.12500E-006	  9.56962E-001	  9.48842E-001	 -3.00000E+000	 -3.00000E+000
  6.25000E-006	  9.21245E-001	  8.48883E-001	 -3.00000E+000	 -3.00000E+000
  9.37500E-006	  8.94684E-001	  9.32600E-001	 -3.00000E+000	 -3.00000E+000
  1.25000E-005	  9.15506E-001	  8.33664E-001	 -3.00000E+000	 -3.00000E+000
  1.56250E-005	  9.68177E-001	  9.96809E-001	 -3.00000E+000	 -3.00000E+000
  1.87500E-005	  9.87515E-001	  9.85447E-001	 -3.00000E+000	 -3.00000E+000
  2.18750E-005	  9.28708E-001	  8.74474E-001	 -3.00000E+000	 -3.00000E+000
  2.50000E-005	  9.38001E-001	  9.04364E-001	 -3.00000E+000	 -3.00000E+000
  2.81250E-005	  9.34395E-001	  9.65641E-001	 -3.00000E+000	 -3.00000E+000
  3.12500E-005	  9.54885E-001	  9.21338E-001	 -3.00000E+000	 -3.00000E+000
  3.43750E-005	  9.12120E-001	  9.15517E-001	 -3.00000E+000	 -2.99974E+000
  3.75000E-005	  8.69140E-001	  8.30481E-001	 -3.00000E+000	 -3.00000E+000
  4.06250E-005	  9.60479E-001	  9.30421E-001	 -3.00000E+000	  1.57890E+000
  4.37500E-005	  9.45636E-001	  9.32800E-001	 -3.00000E+000	  2.05041E+000
  4.68750E-005	  9.55960E-001	  8.78759E-001	 -3.00000E+000	 -7.46954E-001
  5.00000E-005	  9.30884E-001	  9.13318E-001	 -3.00000E+000	  3.10215E+000
  5.62500E-005	  9.47693E-001	  9.35749E-001	 -3.00000E+000	  1.50891E+000
  6.25000E-005	  9.47224E-001	  9.60770E-001	 -3.00000E+000	  1.53876E+000
  6.87500E-005	  8.99268E-001	  9.29905E-001	 -2.91552E+000	  1.69000E+000
  7.50000E-005	  9.35719E-001	  8.96866E-001	  2.51995E+000	  1.15610E+000
  8.12500E-005	  9.33342E-001	  8.91846E-001	  1.29202E+000	  1.20394E+000
  8.75000E-005	  9.23715E-001	  9.06626E-001	  1.32279E+000	  1.20376E+000
  9.37500E-005	  9.30407E-001	  9.17252E-001	  1.24200E+000	  1.14729E+000
  1.00000E-004	  9.19008E-001	  9.20597E-001	  1.07261E+000	  1.08595E+000
  1.12500E-004	  9.47446E-001	  9.50545E-001	  1.11316E+000	  1.10918E+000
  1.25000E-004	  8.96362E-001	  9.35710E-001	  1.02956E+000	  1.10426E+000
  1.37500E-004	  9.34627E-001	  9.39523E-001	  9.66038E-001	  1.06107E+000
  1.50000E-004	  9.14544E-001	  9.17657E-001	  9.50866E-001	  1.06862E+000
  1.62500E-004	  9.48239E-001	  9.36245E-001	  9.49096E-001	  1.01697E+000
  1.75000E-004	  9.48980E-001	  9.40122E-001	  8.94005E-001	  1.01121E+000
  1.87500E-004	  9.12644E-001	  9.04219E-001	  9.78818E-001	  1.02290E+000
  2.00000E-004	  9.19406E-001	  9.13694E-001	  9.17276E-001	  9.92187E-001
  2.25000E-004	  9.14277E-001	  9.21767E-001	  9.29646E-001	  9.99382E-001
  2.50000E-004	  9.40228E-001	  9.45009E-001	  9.13277E-001	  9.94395E-001
  2.75000E-004	  9.31297E-001	  9.15482E-001	  9.29497E-001	  9.77461E-001
  3.00000E-004	  9.28755E-001	  9.13577E-001	  9.19948E-001	  9.78939E-001
  3.25000E-004	  9.22767E-001	  9.24119E-001	  9.26013E-001	  9.60577E-001
  3.50000E-004	  9.40671E-001	  9.32995E-001	  9.13850E-001	  9.76317E-001
  3.75000E-004	  9.31810E-001	  9.40601E-001	  9.42891E-001	  9.73050E-001
  4.00000E-004	  9.43054E-001	  9.54145E-001	  9.24231E-001	  9.61592E-001
  4.50000E-004	  9.22112E-001	  9.15189E-001	  9.29049E-001	  9.74800E-001
  5.00000E-004	  9.30543E-001	  9.20702E-001	  9.30239E-001	  9.74634E-001
  5.50000E-004	  9.27449E-001	  9.34943E-001	  9.33054E-001	  9.64709E-001
  6.00000E-004	  9.34507E-001	  9.28867E-001	  9.32530E-001	  9.65488E-001
  6.50000E-004	  9.35908E-001	  9.45926E-001	  9.23738E-001	  9.73117E-001
  7.00000E-004	  9.23258E-001	  9.20055E-001	  9.18660E-001	  9.54251E-001
  7.50000E-004	  9.25078E-001	  9.31576E-001	  9.24701E-001	  9.61781E-001
  8.00000E-004	  9.20171E-001	  9.19775E-001	  9.34211E-001	  9.56852E-001
  9.00000E-004	  9.31785E-001	  9.30837E-001	  9.35653E-001	  9.53822E-001
  1.00000E-003	  9.27136E-001	  9.25882E-001	  9.20787E-001	  9.49238E-001
  1.10000E-003	  9.22044E-001	  9.15504E-001	  9.23082E-001	  9.53980E-001
  1.20000E-003	  9.14656E-001	  9.10772E-001	  9.32800E-001	  9.48724E-001
  1.30000E-003	  9.26913E-001	  9.26071E-001	  9.16093E-001	  9.45023E-001
  1.40000E-003	  9.20733E-001	  9.22593E-001	  9.21087E-001	  9.48404E-001
  1.50000E-003	  9.21475E-001	  9.21164E-001	  9.08543E-001	  9.37959E-001
  1.60000E-003	  9.15980E-001	  9.12109E-001	  9.23253E-001	  9.34067E-001
  1.80000E-003	  9.22947E-001	  9.20404E-001	  9.22791E-001	  9.42377E-001
  2.00000E-003	  9.22528E-001	  9.23049E-001	  9.24999E-001	  9.40776E-001
  2.20000E-003	  9.21745E-001	  9.24884E-001	  9.27216E-001	  9.33987E-001
  2.40000E-003	  9.17663E-001	  9.18066E-001	  9.28907E-001	  9.40292E-001
  2.60000E-003	  9.18419E-001	  9.20483E-001	  9.22257E-001	  9.38074E-001
  2.80000E-003	  9.16833E-001	  9.23903E-001	  9.16773E-001	  9.35808E-001
  3.00000E-003	  9.08158E-001	  9.06092E-001	  9.19362E-001	  9.33661E-001
  3.20000E-003	  9.11966E-001	  9.05774E-001	  9.19468E-001	  9.31905E-001
  3.60000E-003	  9.08790E-001	  9.07616E-001	  9.21711E-001	  9.25313E-001
  4.00000E-003	  9.10245E-001	  9.13545E-001	  9.19032E-001	  9.26183E-001
  4.40000E-003	  9.02563E-001	  9.04141E-001	  9.18988E-001	  9.22702E-001
  4.80000E-003	  9.04018E-001	  9.03931E-001	  9.17155E-001	  9.21516E-001
  5.20000E-003	  9.01414E-001	  9.02014E-001	  9.09640E-001	  9.16095E-001
  5.60000E-003	  9.00076E-001	  8.98820E-001	  9.14088E-001	  9.11787E-001
  6.00000E-003	  8.97131E-001	  8.97684E-001	  9.12601E-001	  9.12654E-001
  6.40000E-003	  8.95562E-001	  8.93156E-001	  9.05703E-001	  9.15916E-001
  7.20000E-003	  8.93701E-001	  8.90694E-001	  9.06111E-001	  9.05970E-001
  8.00000E-003	  8.88535E-001	  8.88280E-001	  8.98066E-001	  9.02553E-001
  8.80000E-003	  8.82063E-001	  8.81534E-001	  9.02512E-001	  9.01524E-001
  9.60000E-003	  8.78470E-001	  8.79867E-001	  8.93594E-001	  8.96167E-001
  1.04000E-002	  8.71847E-001	  8.72083E-001	  8.87322E-001	  8.90312E-001
  1.12000E-002	  8.68024E-001	  8.68517E-001	  8.88456E-001	  8.85359E-001
  1.20000E-002	  8.66465E-001	  8.64020E-001	  8.83834E-001	  8.81932E-001
  1.28000E-002	  8.62830E-001	  8.62467E-001	  8.82778E-001	  8.75755E-001
  1.44000E-002	  8.53033E-001	  8.54450E-001	  8.72750E-001	  8.66322E-001
  1.60000E-002	  8.46036E-001	  8.45051E-001	  8.62138E-001	  8.65140E-001
  1.76000E-002	  8.38658E-001	  8.39269E-001	  8.56355E-001	  8.55813E-001
  1.92000E-002	  8.29710E-001	  8.30865E-001	  8.47190E-001	  8.46063E-001
  2.08000E-002	  8.23217E-001	  8.23593E-001	  8.45017E-001	  8.38642E-001
  2.24000E-002	  8.16545E-001	  8.16516E-001	  8.32101E-001	  8.28474E-001
  2.40000E-002	  8.08563E-001	  8.07427E-001	  8.24099E-001	  8.22624E-001
  2.56000E-002	  8.02263E-001	  8.01254E-001	  8.16586E-001	  8.15058E-001
  2.88000E-002	  7.84505E-001	  7.85126E-001	  8.01051E-001	  7.99103E-001
  3.20000E-002	  7.73671E-001	  7.73889E-001	  7.91629E-001	  7.84973E-001
  3.52000E-002	  7.60213E-001	  7.60197E-001	  7.74588E-001	  7.69706E-001
  3.84000E-002	  7.44945E-001	  7.44985E-001	  7.61936E-001	  7.59338E-001
  4.16000E-002	  7.31973E-001	  7.32019E-001	  7.49183E-001	  7.45905E-001
  4.48000E-002	  7.20270E-001	  7.21014E-001	  7.32549E-001	  7.33355E-001
  4.80000E-002	  7.08822E-001	  7.08970E-001	  7.22641E-001	  7.18918E-001
  5.12000E-002	  6.95432E-001	  6.96094E-001	  7.09472E-001	  7.06926E-001
  5.76000E-002	  6.71086E-001	  6.69806E-001	  6.85356E-001	  6.81832E-001
  6.40000E-002	  6.46801E-001	  6.46379E-001	  6.62564E-001	  6.59997E-001
  7.04000E-002	  6.26691E-001	  6.26069E-001	  6.38841E-001	  6.36661E-001
  7.68000E-002	  6.03760E-001	  6.03560E-001	  6.17281E-001	  6.13874E-001
  8.32000E-002	  5.82960E-001	  5.82991E-001	  5.96860E-001	  5.93291E-001
  8.96000E-002	  5.63595E-001	  5.63460E-001	  5.74989E-001	  5.73995E-001
  9.60000E-002	  5.44438E-001	  5.43948E-001	  5.55774E-001	  5.52943E-001
  1.02400E-001	  5.26389E-001	  5.26258E-001	  5.37524E-001	  5.35340E-001
  1.15200E-001	  4.92060E-001	  4.91993E-001	  5.01968E-001	  4.99362E-001
  1.28000E-001	  4.59103E-001	  4.58264E-001	  4.69014E-001	  4.67010E-001
  1.40800E-001	  4.29313E-001	  4.29013E-001	  4.37163E-001	  4.35042E-001
  1.53600E-001	  4.00365E-001	  3.99582E-001	  4.08732E-001	  4.07418E-001
  1.66400E-001	  3.74316E-001	  3.73662E-001	  3.81046E-001	  3.80466E-001
  1.79200E-001	  3.49602E-001	  3.49339E-001	  3.56857E-001	  3.56162E-001
  1.92000E-001	  3.27674E-001	  3.26888E-001	  3.33682E-001	  3.32611E-001
  2.04800E-001	  3.05993E-001	  3.06060E-001	  3.12147E-001	  3.11039E-001
  2.30400E-001	  2.66890E-001	  2.66482E-001	  2.72203E-001	  2.70967E-001
  2.56000E-001	  2.32682E-001	  2.32737E-001	  2.37911E-001	  2.35879E-001
  2.81600E-001	  2.03664E-001	  2.03306E-001	  2.09272E-001	  2.06286E-001
  3.07200E-001	  1.77847E-001	  1.78043E-001	  1.81844E-001	  1.80149E-001
  3.32800E-001	  1.55288E-001	  1.55107E-001	  1.58547E-001	  1.57680E-001
  3.58400E-001	  1.36225E-001	  1.36139E-001	  1.38852E-001	  1.38082E-001
  3.84000E-001	  1.19437E-001	  1.19573E-001	  1.21969E-001	  1.20860E-001
  4.09600E-001	  1.05098E-001	  1.05156E-001	  1.07481E-001	  1.06292E-001
  4.60800E-001	  8.04988E-002	  8.06889E-002	  8.23928E-002	  8.22787E-002
  5.12000E-001	  6.22037E-002	  6.20388E-002	  6.35430E-002	  6.32674E-002
  5.63200E-001	  4.81535E-002	  4.83704E-002	  4.92295E-002	  4.92004E-002
  6.14400E-001	  3.75720E-002	  3.74635E-002	  3.86895E-002	  3.85410E-002
  6.65600E-001	  3.01340E-002	  3.02034E-002	  3.04898E-002	  3.05201E-002
  7.16800E-001	  2.34209E-002	  2.31521E-002	  2.38225E-002	  2.38259E-002
  7.68000E-001	  1.78508E-002	  1.76135E-002	  1.78530E-002	  1.79799E-002
  8.19200E-001	  1.39334E-002	  1.39197E-002	  1.41695E-002	  1.40362E-002
  9.21600E-001	  8.60900E-003	  8.71851E-003	  8.44985E-003	  9.02044E-003
  1.02400E+000	  5.45342E-003	  5.40422E-003	  5.28702E-003	  6.24494E-003
  1.12640E+000	  2.83593E-003	  2.76240E-003	  2.62998E-003	  3.30103E-003
  1.22880E+000	  9.30177E-004	  9.05106E-004	  7.65739E-004	  1.14767E-003
  1.33120E+000	  6.82239E-005	  1.15801E-004	 -1.94592E-004	  3.61456E-004
  1.43360E+000	 -1.59514E-004	 -9.24723E-005	  1.48272E-005	 -2.95919E-004
  1.53600E+000	 -8.09190E-005	 -5.20585E-004	  3.40044E-004	 -3.03187E-004
  1.63840E+000	  5.15177E-005	 -3.93846E-004	 -1.47146E-004	  8.59062E-005
  1.84320E+000	  3.04666E-004	  6.70013E-004	 -2.08224E-004	  8.99630E-004
  2.04800E+000	  2.50867E-004	  7.52099E-004	 -3.63159E-004	  1.03088E-004
  2.25280E+000	 -7.38934E-004	 -6.09236E-004	 -1.06816E-003	 -3.51843E-004
  2.45760E+000	 -4.16624E-004	 -1.94097E-004	 -2.77407E-004	 -6.44833E-004
  2.66240E+000	  8.17340E-004	  3.50663E-004	  4.89320E-004	  9.49724E-004
  2.86720E+000	  9.02307E-004	  6.24042E-005	  9.60692E-004	  1.25729E-003
  3.07200E+000	  1.18841E-003	  9.59282E-004	  1.45932E-003	  1.06331E-003
  3.27680E+000	  8.50283E-004	  9.55469E-004	  9.29298E-004	  8.56057E-004
  3.68640E+000	 -3.09648E-004	 -1.89069E-005	  7.95502E-005	 -6.05839E-004
  4.09600E+000	 -7.76007E-005	  4.21440E-004	  1.63286E-004	 -5.36954E-004
  4.50560E+000	  2.25221E-004	 -1.60938E-004	  1.18985E-004	  4.81182E-004
  4.91520E+000	 -1.12039E-003	 -1.36205E-003	 -1.67155E-003	 -9.65861E-004
  5.32480E+000	 -3.06925E-004	 -2.95850E-004	 -2.13219E-004	 -3.36116E-004
  5.73440E+000	 -2.67407E-004	 -2.45636E-004	 -1.52581E-004	 -3.87203E-004
  6.14400E+000	 -8.43504E-004	 -8.91793E-004	 -8.30567E-004	 -8.34391E-004
  6.55360E+000	 -4.18257E-004	 -3.67776E-004	 -1.32128E-004	 -6.86171E-004
  7.37280E+000	  7.71822E-005	 -2.27638E-004	  3.16686E-004	  4.07750E-005
  8.19200E+000	  1.89613E-003	  1.90855E-003	  2.04354E-003	  1.80655E-003
  9.01120E+000	  9.80512E-004	  1.06451E-003	  8.74323E-004	  1.08913E-003
  9.83040E+000	  4.99891E-004	  5.13535E-004	  2.00327E-004	  5.39280E-004
  1.06496E+001	 -1.98668E-004	 -9.79303E-005	 -7.79204E-004	  2.27996E-004
  1.14688E+001	  1.54802E-004	  4.86382E-005	 -2.15659E-004	  5.29834E-004
  1.22880E+001	 -1.35742E-004	 -3.48454E-004	 -7.00360E-005	 -8.63864E-005
  1.31072E+001	 -1.15037E-006	 -1.25548E-004	  7.59110E-005	 -6.45496E-005
  1.47456E+001	  3.76416E-004	  2.72635E-004	  2.11195E-004	  3.98116E-004
  1.63840E+001	  1.33088E-003	  1.42063E-003	  1.03396E-003	  1.42944E-003
  1.80224E+001	  3.51213E-004	  3.06402E-004	  2.75766E-004	  4.96077E-004
  1.96608E+001	  2.75071E-004	  2.44176E-004	  2.40137E-004	  2.27198E-004
  2.12992E+001	  2.30965E-004	 -1.13700E-004	 -8.38917E-005	  5.34402E-004
  2.29376E+001	 -4.11478E-005	 -1.47986E-004	 -3.93161E-004	  1.38847E-004
  2.45760E+001	 -1.34030E-004	 -3.61190E-004	 -1.12343E-004	 -6.15891E-005
  2.62144E+001	 -5.07321E-004	 -6.45548E-004	 -4.79864E-004	 -4.97640E-004
  2.94912E+001	  1.41030E-004	  2.32268E-004	  2.70518E-004	 -4.62166E-005
  3.27680E+001	  2.93464E-004	  4.58489E-004	  3.25427E-004	  2.47367E-004
  3.60448E+001	 -1.04136E-004	 -5.22027E-005	  9.11162E-005	 -2.34178E-004
  3.93216E+001	  9.43005E-004	  8.64953E-004	  9.28773E-004	  9.19421E-004
  4.25984E+001	  7.28733E-004	  6.89558E-004	  6.41747E-004	  7.91586E-004
  4.58752E+001	  2.46793E-004	  2.09427E-004	  1.84948E-004	  3.50237E-004
  4.91520E+001	  1.12701E-003	  1.03666E-003	  1.24739E-003	  1.08642E-003
  5.24288E+001	  5.52199E-004	  4.46187E-004	  6.16309E-004	  5.36224E-004
  5.89824E+001	  1.37514E-004	  1.04637E-004	  1.69554E-004	  1.80759E-004
  6.55360E+001	  3.28381E-004	  4.28566E-004	  2.32207E-004	  4.16608E-004
  7.20896E+001	 -4.96649E-004	 -4.25086E-004	 -5.10551E-004	 -4.12413E-004
  7.86432E+001	  1.50708E-004	  2.12278E-004	  1.27756E-004	  1.07370E-004
  8.51968E+001	  3.83886E-004	  4.17459E-004	  3.86599E-004	  4.62195E-004
  9.17504E+001	  5.10738E-004	  6.60049E-004	  3.36449E-004	  6.52160E-004
  9.83040E+001	  3.48953E-004	  3.60633E-004	  3.98889E-004	  3.47000E-004
  1.04858E+002	  2.17282E-004	  2.64739E-004	  1.98006E-004	  2.25308E-004
  1.17965E+002	  1.96150E-004	  2.18440E-004	  1.29055E-004	  2.48191E-004
  1.31072E+002	  2.61300E-004	  2.97514E-004	  2.42605E-004	  2.96027E-004
  1.44179E+002	  2.60869E-004	  1.75741E-004	  1.85729E-004	  3.13350E-004
  1.57286E+002	  4.01326E-004	  4.60367E-004	  3.79294E-004	  4.04516E-004
  1.70394E+002	  2.51089E-004	  2.02461E-004	  2.34895E-004	  2.37862E-004
  1.83501E+002	  1.41280E-004	  3.69582E-005	  1.10248E-004	  1.61878E-004
  1.96608E+002	  6.03979E-004	  5.54759E-004	  5.74549E-004	  5.62132E-004
  2.09715E+002	  4.70548E-004	  4.42134E-004	  4.25540E-004	  4.81555E-004
  2.35930E+002	  5.19829E-004	  4.82779E-004	  5.24674E-004	  4.92336E-004
  2.62144E+002	  1.43591E-004	  1.44290E-004	  1.92080E-004	  1.20707E-004
  2.88358E+002	  3.45418E-004	  4.15195E-004	  2.11675E-004	  4.86116E-004
  3.14573E+002	  3.15647E-004	  3.22470E-004	  3.03496E-004	  3.49355E-004
  3.40787E+002	 -2.04787E-004	 -1.38108E-004	 -1.94590E-004	 -2.10086E-004
  3.67002E+002	  1.10341E-004	  2.35957E-005	  1.28011E-004	  1.02535E-004
  3.93216E+002	 -7.94000E-005	 -5.91519E-006	 -1.18422E-004	 -2.45713E-005
  4.19430E+002	  1.36993E-004	  1.40720E-004	  1.32161E-004	  1.68880E-004
  4.71859E+002	  1.38403E-004	  1.81553E-004	  1.58372E-004	  1.58384E-004
  5.24288E+002	  4.38121E-004	  4.20524E-004	  4.55099E-004	  4.25393E-004
  5.76717E+002	  2.31031E-004	  2.31409E-004	  2.10753E-004	  2.56297E-004
  6.29146E+002	  2.30971E-004	  1.98900E-004	  1.96692E-004	  2.76826E-004
  6.81574E+002	  1.16147E-004	  8.15096E-005	  1.20289E-004	  1.27761E-004
  7.34003E+002	  3.04188E-004	  2.61265E-004	  3.09305E-004	  3.08828E-004
  7.86432E+002	  2.67452E-004	  2.90420E-004	  1.89247E-004	  3.45243E-004
  8.38861E+002	  2.90716E-004	  2.93937E-004	  2.74229E-004	  3.13193E-004
  9.43718E+002	  1.38901E-004	  1.27955E-004	  1.87173E-004	  9.50244E-005
  1.04858E+003	  3.47532E-004	  3.23196E-004	  3.50896E-004	  3.28026E-004
  1.15343E+003	  2.95102E-004	  2.99757E-004	  3.37012E-004	  2.56989E-004
  1.25829E+003	  1.26089E-004	  1.17151E-004	  1.16331E-004	  1.44217E-004
  1.36315E+003	  1.31616E-004	  1.07556E-004	  1.24574E-004	  1.39277E-004
  1.46801E+003	  1.46947E-004	  1.11602E-004	  1.14936E-004	  1.77015E-004
  1.57286E+003	  2.37297E-004	  2.56087E-004	  2.29536E-004	  2.48847E-004
  1.67772E+003	  2.49129E-004	  2.56480E-004	  2.44783E-004	  2.42605E-004
  1.88744E+003	  1.25586E-004	  1.26479E-004	  1.16115E-004	  1.16961E-004
  2.09715E+003	  1.01080E-004	  1.14443E-004	  1.06739E-004	  9.21219E-005
  2.30687E+003	  2.11382E-004	  2.37266E-004	  2.30364E-004	  2.05803E-004
  2.51658E+003	  1.41212E-004	  1.39870E-004	  1.42194E-004	  1.23712E-004
  2.72630E+003	  2.86003E-004	  3.07194E-004	  3.02644E-004	  2.75529E-004
  2.93601E+003	  1.44746E-004	  1.66469E-004	  1.39874E-004	  1.43657E-004
  3.14573E+003	  2.24041E-004	  2.12954E-004	  2.03467E-004	  2.46522E-004
  3.35544E+003	  2.25857E-004	  2.28713E-004	  2.27908E-004	  2.17927E-004
  3.77487E+003	  1.41108E-004	  1.34009E-004	  1.62123E-004	  1.20720E-004
  4.19430E+003	  1.50692E-004	  1.51777E-004	  1.61071E-004	  1.42958E-004
  4.61373E+003	  1.36086E-004	  1.39681E-004	  1.51855E-004	  1.21347E-004
  5.03317E+003	  1.25957E-004	  1.02438E-004	  1.57442E-004	  9.51696E-005
  5.45260E+003	  5.63138E-005	  3.87968E-005	  6.79217E-005	  4.97534E-005
  5.87203E+003	  1.74423E-004	  1.62396E-004	  1.99390E-004	  1.40794E-004
  6.29146E+003	  1.45160E-004	  1.41199E-004	  1.59148E-004	  1.35889E-004
  6.71089E+003	  1.61710E-004	  1.61370E-004	  1.57187E-004	  1.51062E-004
  7.54975E+003	  1.62293E-004	  1.70089E-004	  1.48947E-004	  1.72651E-004
  8.38861E+003	  1.73513E-004	  1.44349E-004	  1.75912E-004	  1.62837E-004
  9.22747E+003	  1.09965E-004	  1.00973E-004	  1.05116E-004	  1.19322E-004
  1.00663E+004	  1.26831E-004	  1.09193E-004	  1.27571E-004	  1.38909E-004
  1.09052E+004	  1.69687E-004	  1.38756E-004	  1.63708E-004	  1.85794E-004
  1.17441E+004	  8.28073E-005	  8.00042E-005	  9.10095E-005	  6.39393E-005

"Count Rate"
       0.27344	     104.96859	     129.76472	     104.96859	     129.76472
       0.54688	     103.29041	     128.05730	     103.29041	     128.05730
       0.82031	     107.69609	     133.04065	     107.69609	     133.04065
       1.09375	     107.46575	     131.08459	     107.46575	     131.08459
       1.36719	     106.70892	     129.83054	     106.70892	     129.83054
       1.64063	     109.34502	     134.43730	     109.34502	     134.43730
       1.91406	     106.78205	     132.94559	     106.78205	     132.94559
       2.18750	     109.00500	     135.28554	     109.00500	     135.28554
       2.46094	     108.05805	     132.31308	     108.05805	     132.31308
       2.73438	     107.07820	     133.26003	     107.07820	     133.26003
       3.00781	     107.72900	     132.78107	     107.72900	     132.78107
       3.28125	     108.18602	     133.84135	     108.18602	     133.84135
       3.55469	     112.30286	     136.10452	     112.30286	     136.10452
       3.82813	     106.17513	     129.41008	     106.17513	     129.41008
       4.10156	     106.42740	     128.61668	     106.42740	     128.61668
       4.37500	     102.75295	     127.70630	     102.75295	     127.70630
       4.64844	     109.61558	     135.85590	     109.61558	     135.85590
       4.92188	     106.10931	     130.43745	     106.10931	     130.43745
       5.19531	     101.18811	     126.82516	     101.18811	     126.82516
       5.46875	     109.62655	     136.08258	     109.62655	     136.08258
       5.74219	     105.04537	     130.29121	     105.04537	     130.29121
       6.01563	     104.77481	     126.51804	     104.77481	     126.51804
       6.28906	     108.08730	     134.27643	     108.08730	     134.27643
       6.56250	     104.77481	     128.98961	     104.77481	     128.98961
       6.83594	     113.83846	     139.55229	     113.83846	     139.55229
       7.10938	     105.52798	     131.96939	     105.52798	     131.96939
       7.38281	     107.58640	     134.38612	     107.58640	     134.38612
       7.65625	     107.69244	     133.27098	     107.69244	     133.27098
       7.92969	     107.50963	     131.94014	     107.50963	     131.94014
       8.20313	     107.36338	     133.40260	     107.36338	     133.40260
       8.47656	     111.17311	     138.98558	     111.17311	     138.98558
       8.75000	     107.14035	     132.26555	     107.14035	     132.26555
       9.02344	     106.42740	     131.94380	     106.42740	     131.94380
       9.29688	     106.91733	     130.25099	     106.91733	     130.25099
       9.57031	     104.92838	     129.02618	     104.92838	     129.02618
       9.84375	     108.13117	     132.92000	     108.13117	     132.92000
      10.11719	     108.91725	     134.53603	     108.91725	     134.53603
      10.39063	     104.49329	     129.14684	     104.49329	     129.14684
      10.66406	     108.33592	     133.84500	     108.33592	     133.84500
      10.93750	     104.65051	     128.92746	     104.65051	     128.92746
      11.21094	     108.51508	     132.39717	     108.51508	     132.39717
      11.48438	     106.08372	     130.30219	     106.08372	     130.30219
      11.75781	     107.03067	     130.20346	     107.03067	     130.20346
      12.03125	     103.83884	     127.78308	     103.83884	     127.78308
      12.30469	     105.64864	     129.98410	     105.64864	     129.98410
      12.57813	     104.43114	     128.36807	     104.43114	     128.36807
      12.85156	     106.66505	     129.87076	     106.66505	     129.87076
      13.12500	     106.52978	     130.98222	     106.52978	     130.98222
      13.39844	     108.86972	     134.08997	     108.86972	     134.08997
      13.67188	     105.99232	     130.20346	     105.99232	     130.20346
      13.94531	     109.57902	     131.61475	     109.57902	     131.61475
      14.21875	     108.78928	     130.85426	     108.78928	     130.85426
      14.49219	     111.05611	     135.27092	     111.05611	     135.27092
      14.76563	     105.04171	     126.77398	     105.04171	     126.77398
      15.03906	     107.48403	     132.75546	     107.48403	     132.75546
      15.31250	     109.01231	     135.39157	     109.01231	     135.39157
      15.58594	     104.84428	     129.02983	     104.84428	     129.02983
      15.85938	     106.54806	     131.57088	     106.54806	     131.57088
      16.13281	     107.28294	     132.37888	     107.28294	     132.37888
      16.40625	     104.10208	     129.02618	     104.10208	     129.02618
      16.67969	     109.73989	     133.96201	     109.73989	     133.96201
      16.95313	     106.63946	     129.69160	     106.63946	     129.69160
      17.22656	     108.62842	     134.42999	     108.62842	     134.42999
      17.50000	     109.93001	     136.83209	     109.93001	     136.83209
      17.77344	     112.47105	     138.35306	     112.47105	     138.35306
      18.04688	     107.54253	     133.04431	     107.54253	     133.04431
      18.32031	     109.69236	     133.00043	     109.69236	     133.00043
      18.59375	     104.61760	     128.50334	     104.61760	     128.50334
      18.86719	     104.11670	     127.81964	     104.11670	     127.81964
      19.14063	     107.52059	     132.74815	     107.52059	     132.74815
      19.41406	     109.97388	     133.99857	     109.97388	     133.99857
      19.68750	     105.63401	     131.08826	     105.63401	     131.08826
      19.96094	     107.74728	     133.47208	     107.74728	     133.47208
      20.23438	     107.76190	     132.16316	     107.76190	     132.16316
      20.50781	     106.21169	     130.15228	     106.21169	     130.15228
      20.78125	     108.04343	     132.40082	     108.04343	     132.40082
      21.05469	     106.36525	     129.08467	     106.36525	     129.08467
      21.32813	     107.12939	     131.19429	     107.12939	     131.19429
      21.60156	     106.93926	     129.84515	     106.93926	     129.84515
      21.87500	     108.66863	     133.13205	     108.66863	     133.13205
      22.14844	     107.86062	     133.39896	     107.86062	     133.39896
      22.42188	     108.52604	     131.15407	     108.52604	     131.15407
      22.69531	     104.97224	     131.00783	     104.97224	     131.00783
      22.96875	     105.19527	     127.69167	     105.19527	     127.69167
      23.24219	     110.17497	     135.48297	     110.17497	     135.48297
      23.51563	     108.47120	     132.79202	     108.47120	     132.79202
      23.78906	     109.27556	     133.30023	     109.27556	     133.30023
      24.06250	     108.73444	     131.08459	     108.73444	     131.08459
      24.33594	     107.79846	     132.12660	     107.79846	     132.12660
      24.60938	     107.12939	     130.28391	     107.12939	     130.28391
      24.88281	     109.68504	     132.52879	     109.68504	     132.52879
      25.15625	     107.92278	     133.83038	     107.92278	     133.83038
      25.42969	     105.82048	     129.56363	     105.82048	     129.56363
      25.70313	     109.25362	     133.12108	     109.25362	     133.12108
      25.97656	     103.47322	     128.87262	     103.47322	     128.87262
      26.25000	     104.31779	     127.33337	     104.31779	     127.33337
      26.52344	     110.93546	     135.44275	     110.93546	     135.44275
      26.79688	     108.97575	     132.94925	     108.97575	     132.94925
      27.07031	     107.90084	     131.86336	     107.90084	     131.86336
      27.34375	     107.75093	     132.25822	     107.75093	     132.25822
      27.61719	     106.91367	     131.59647	     106.91367	     131.59647
      27.89063	     107.10379	     131.46118	     107.10379	     131.46118
      28.16406	     111.41076	     134.73346	     111.41076	     134.73346
      28.43750	     106.56634	     131.31494	     106.56634	     131.31494
      28.71094	     105.36711	     130.51424	     105.36711	     130.51424
      28.98438	     103.12954	     126.63139	     103.12954	     126.63139
      29.25781	     108.22989	     133.71704	     108.22989	     133.71704
      29.53125	     105.98866	     131.81218	     105.98866	     131.81218
      29.80469	     105.03440	     127.56371	     105.03440	     127.56371
      30.07813	     106.89905	     131.24182	     106.89905	     131.24182
      30.35156	     104.78578	     130.43745	     104.78578	     130.43745
      30.62500	     109.87517	     134.93454	     109.87517	     134.93454
      30.89844	     108.99037	     133.38799	     108.99037	     133.38799
      31.17188	     102.76026	     124.67168	     102.76026	     124.67168
      31.44531	     102.21915	     125.07021	     102.21915	     125.07021
      31.71875	     107.03798	     130.46671	     107.03798	     130.46671
      31.99219	     104.37263	     129.67332	     104.37263	     129.67332
      32.26563	     103.50613	     128.39732	     103.50613	     128.39732
      32.53906	     106.00694	     131.20891	     106.00694	     131.20891
      32.81250	     107.19520	     130.73726	     107.19520	     130.73726
      33.08594	     107.25735	     129.04811	     107.25735	     129.04811
      33.35938	     108.85144	     134.49947	     108.85144	     134.49947
      33.63281	     107.20982	     132.44835	     107.20982	     132.44835
      33.90625	     104.48598	     127.89276	     104.48598	     127.89276
      34.17969	     109.61558	     133.85963	     109.61558	     133.85963
      34.45313	     107.63028	     132.15952	     107.63028	     132.15952
      34.72656	     106.05082	     127.78674	     106.05082	     127.78674
      35.00000	     103.55731	     125.67347	     103.55731	     125.67347
      35.27344	     107.70706	     132.11198	     107.70706	     132.11198
      35.54688	     107.63393	     132.59094	     107.63393	     132.59094
      35.82031	     106.62849	     130.95297	     106.62849	     130.95297
      36.09375	     107.53522	     131.20160	     107.53522	     131.20160
      36.36719	     108.92456	     134.55431	     108.92456	     134.55431
      36.64063	     106.06544	     130.55446	     106.06544	     130.55446
      36.91406	     108.62110	     133.40260	     108.62110	     133.40260
      37.18750	     107.58275	     131.84508	     107.58275	     131.84508
      37.46094	     106.48225	     130.93105	     106.48225	     130.93105
      37.73438	     108.01052	     132.94559	     108.01052	     132.94559
      38.00781	     107.57178	     133.78651	     107.57178	     133.78651
      38.28125	     103.89368	     128.04266	     103.89368	     128.04266
      38.55469	     104.25564	     128.14503	     104.25564	     128.14503
      38.82813	     109.94829	     135.22704	     109.94829	     135.22704
      39.10156	     105.80951	     130.54715	     105.80951	     130.54715
      39.37500	     109.64848	     133.98759	     109.64848	     133.98759
      39.64844	     109.15490	     134.93089	     109.15490	     134.93089
      39.92188	     106.25922	     130.63855	     106.25922	     130.63855
      40.19531	     105.10752	     130.21809	     105.10752	     130.21809
      40.46875	     108.15311	     134.54333	     108.15311	     134.54333
      40.74219	     105.22086	     129.80495	     105.22086	     129.80495
      41.01563	     102.44583	     125.54916	     102.44583	     125.54916
      41.28906	     106.53709	     132.10832	     106.53709	     132.10832
      41.56250	     106.60655	     129.48320	     106.60655	     129.48320
      41.83594	     104.70535	     127.23100	     104.70535	     127.23100
      42.10938	     106.24825	     130.15228	     106.24825	     130.15228
      42.38281	     106.17878	     128.67152	     106.17878	     128.67152
      42.65625	     108.12386	     132.45932	     108.12386	     132.45932
      42.92969	     106.29944	     132.13393	     106.29944	     132.13393
      43.20313	     103.41472	     128.68616	     103.41472	     128.68616
      43.47656	     109.38524	     134.18503	     109.38524	     134.18503
      43.75000	     107.99955	     133.89986	     107.99955	     133.89986
      44.02344	     106.96486	     131.77927	     106.96486	     131.77927
      44.29688	     107.16229	     130.56908	     107.16229	     130.56908
      44.57031	     105.35614	     129.56729	     105.35614	     129.56729
      44.84375	     108.84779	     133.04065	     108.84779	     133.04065
      45.11719	     103.88271	     125.35904	     103.88271	     125.35904
      45.39063	     106.32868	     130.84695	     106.32868	     130.84695
      45.66406	     105.28667	     127.29315	     105.28667	     127.29315
      45.93750	     110.45650	     135.28188	     110.45650	     135.28188
      46.21094	     104.84428	     129.85612	     104.84428	     129.85612
      46.48438	     105.57186	     128.31688	     105.57186	     128.31688
      46.75781	     105.17333	     129.37352	     105.17333	     129.37352
      47.03125	     109.70333	     133.99857	     109.70333	     133.99857
      47.30469	     108.88435	     133.92909	     108.88435	     133.92909
      47.57813	     110.41994	     135.40253	     110.41994	     135.40253
      47.85156	     106.89173	     130.29486	     106.89173	     130.29486
      48.12500	     108.15677	     130.07184	     108.15677	     130.07184
      48.39844	     106.27384	     130.28755	     106.27384	     130.28755
      48.67188	     104.15692	     128.07922	     104.15692	     128.07922
      48.94531	     107.92278	     133.83405	     107.92278	     133.83405
      49.21875	     107.81674	     130.84329	     107.81674	     130.84329
      49.49219	     104.35801	     128.80315	     104.35801	     128.80315
      49.76563	     110.20788	     134.33859	     110.20788	     134.33859
      50.03906	     103.48053	     126.06834	     103.48053	     126.06834
      50.31250	     108.40539	     131.85605	     108.40539	     131.85605
      50.58594	     105.24646	     127.36262	     105.24646	     127.36262
      50.85938	     107.67050	     130.79210	     107.67050	     130.79210
      51.13281	     105.20990	     130.06087	     105.20990	     130.06087
      51.40625	     106.73087	     129.15048	     106.73087	     129.15048
      51.67969	     108.81123	     134.52505	     108.81123	     134.52505
      51.95313	     108.24818	     134.19966	     108.24818	     134.19966
      52.22656	     106.45300	     131.74637	     106.45300	     131.74637
      52.50000	     108.28839	     131.64764	     108.28839	     131.64764
      52.77344	     105.46217	     129.45029	     105.46217	     129.45029
      53.04688	     107.14035	     131.28569	     107.14035	     131.28569
      53.32031	     104.87719	     130.20712	     104.87719	     130.20712
      53.59375	     110.85502	     137.17212	     110.85502	     137.17212
      53.86719	     106.92464	     132.01326	     106.92464	     132.01326
      54.14063	     110.47112	     137.32202	     110.47112	     137.32202
      54.41406	     107.83503	     130.96761	     107.83503	     130.96761
      54.68750	     106.58462	     129.13951	     106.58462	     129.13951
      54.96094	     107.80943	     130.78479	     107.80943	     130.78479
      55.23438	     111.15117	     133.76823	     111.15117	     133.76823
      55.50781	     107.76190	     132.63116	     107.76190	     132.63116
      55.78125	     106.49321	     130.83598	     106.49321	     130.83598
      56.05469	     105.22453	     128.67152	     105.22453	     128.67152
      56.32813	     104.61028	     128.08655	     104.61028	     128.08655
      56.60156	     106.73817	     130.90910	     106.73817	     130.90910
      56.87500	     106.49687	     132.71159	     106.49687	     132.71159
      57.14844	     104.57738	     128.30957	     104.57738	     128.30957
      57.42188	     108.57357	     134.05341	     108.57357	     134.05341
      57.69531	     102.99060	     126.55827	     102.99060	     126.55827
      57.96875	     105.44389	     128.17795	     105.44389	     128.17795
      58.24219	     109.59730	     135.08444	     109.59730	     135.08444
      58.51563	     104.95396	     128.63496	     104.95396	     128.63496
      58.78906	     107.53888	     132.53610	     107.53888	     132.53610
      59.06250	     111.60454	     136.42261	     111.60454	     136.42261
      59.33594	     106.71259	     131.45021	     106.71259	     131.45021
      59.60938	     107.29026	     131.60378	     107.29026	     131.60378
      59.88281	     109.76914	     134.46655	     109.76914	     134.46655
      60.15625	     107.84965	     129.08833	     107.84965	     129.08833
      60.42969	     107.04895	     130.94202	     107.04895	     130.94202
      60.70313	     107.08186	     131.58183	     107.08186	     131.58183
      60.97656	     107.40726	     130.71533	     107.40726	     130.71533
      61.25000	     109.70699	     134.55064	     109.70699	     134.55064
      61.52344	     105.55724	     129.33330	     105.55724	     129.33330
      61.79688	     106.89539	     131.32225	     106.89539	     131.32225
      62.07031	     109.80570	     133.15399	     109.80570	     133.15399
      62.34375	     106.39084	     130.89082	     106.39084	     130.89082
      62.61719	     111.31570	     135.82300	     111.31570	     135.82300
      62.89063	     111.54238	     136.98566	     111.54238	     136.98566
      63.16406	     104.32145	     128.70444	     104.32145	     128.70444
      63.43750	     103.76936	     129.23093	     103.76936	     129.23093
      63.71094	     107.85331	     132.89806	     107.85331	     132.89806
      63.98438	     107.83868	     133.37337	     107.83868	     133.37337
      64.25781	     104.15327	     128.98596	     104.15327	     128.98596
      64.53125	     108.37248	     131.62206	     108.37248	     131.62206
      64.80469	     107.20251	     132.00595	     107.20251	     132.00595
      65.07813	     107.05992	     129.69525	     107.05992	     129.69525
      65.35156	     107.15498	     129.90732	     107.15498	     129.90732
      65.62500	     108.21527	     132.66772	     108.21527	     132.66772
      65.89844	     105.57186	     130.76286	     105.57186	     130.76286
      66.17188	     112.69408	     137.60355	     112.69408	     137.60355
      66.44531	     104.52985	     128.49969	     104.52985	     128.49969
      66.71875	     108.13117	     133.14302	     108.13117	     133.14302
      66.99219	     110.57715	     133.64392	     110.57715	     133.64392
      67.26563	     108.62842	     134.34224	     108.62842	     134.34224
      67.53906	     103.29407	     125.52722	     103.29407	     125.52722
      67.81250	     111.01955	     136.18861	     111.01955	     136.18861
      68.08594	     104.31048	     129.69525	     104.31048	     129.69525
      68.35938	     102.74198	     125.31151	     102.74198	     125.31151
      68.63281	     104.01799	     129.24921	     104.01799	     129.24921
      68.90625	     109.37061	     134.61646	     109.37061	     134.61646
      69.17969	     101.07477	     124.21466	     101.07477	     124.21466
      69.45313	     108.20795	     132.55072	     108.20795	     132.55072

Monitor Diode	1633553.03
"StandardDeviation"
  3.12500E-006	  2.30468E-002
  6.25000E-006	  2.30468E-002
  9.37500E-006	  2.30465E-002
  1.25000E-005	  2.30465E-002
  1.56250E-005	  2.30466E-002
  1.87500E-005	  2.30466E-002
  2.18750E-005	  2.30467E-002
  2.50000E-005	  2.30465E-002
  2.81250E-005	  2.30414E-002
  3.12500E-005	  2.30466E-002
  3.43750E-005	  2.27224E-002
  3.75000E-005	  2.27339E-002
  4.06250E-005	  2.28472E-002
  4.37500E-005	  2.28710E-002
  4.68750E-005	  2.29919E-002
  5.00000E-005	  1.60956E-002
  5.62500E-005	  1.62189E-002
  6.25000E-005	  1.62168E-002
  6.87500E-005	  1.60334E-002
  7.50000E-005	  1.61257E-002
  8.12500E-005	  1.62110E-002
  8.75000E-005	  1.61078E-002
  9.37500E-005	  1.61240E-002
  1.00000E-004	  1.13769E-002
  1.12500E-004	  1.14337E-002
  1.25000E-004	  1.13847E-002
  1.37500E-004	  1.13831E-002
  1.50000E-004	  1.14277E-002
  1.62500E-004	  1.14556E-002
  1.75000E-004	  1.14641E-002
  1.87500E-004	  1.13684E-002
  2.00000E-004	  8.07523E-003
  2.25000E-004	  8.10034E-003
  2.50000E-004	  8.11412E-003
  2.75000E-004	  8.10852E-003
  3.00000E-004	  8.08636E-003
  3.25000E-004	  8.10242E-003
  3.50000E-004	  8.12816E-003
  3.75000E-004	  8.09908E-003
  4.00000E-004	  5.78617E-003
  4.50000E-004	  5.76477E-003
  5.00000E-004	  5.77711E-003
  5.50000E-004	  5.76980E-003
  6.00000E-004	  5.76560E-003
  6.50000E-004	  5.77980E-003
  7.00000E-004	  5.76814E-003
  7.50000E-004	  5.76266E-003
  8.00000E-004	  4.12985E-003
  9.00000E-004	  4.13569E-003
  1.00000E-003	  4.13704E-003
  1.10000E-003	  4.13088E-003
  1.20000E-003	  4.12705E-003
  1.30000E-003	  4.12922E-003
  1.40000E-003	  4.13085E-003
  1.50000E-003	  4.12528E-003
  1.60000E-003	  2.99110E-003
  1.80000E-003	  2.99397E-003
  2.00000E-003	  2.99546E-003
  2.20000E-003	  2.99512E-003
  2.40000E-003	  2.99230E-003
  2.60000E-003	  2.99601E-003
  2.80000E-003	  2.99282E-003
  3.00000E-003	  2.99047E-003
  3.20000E-003	  2.21719E-003
  3.60000E-003	  2.21586E-003
  4.00000E-003	  2.21701E-003
  4.40000E-003	  2.21444E-003
  4.80000E-003	  2.21423E-003
  5.20000E-003	  2.21327E-003
  5.60000E-003	  2.21330E-003
  6.00000E-003	  2.21246E-003
  6.40000E-003	  1.69764E-003
  7.20000E-003	  1.69713E-003
  8.00000E-003	  1.69667E-003
  8.80000E-003	  1.69457E-003
  9.60000E-003	  1.69415E-003
  1.04000E-002	  1.69271E-003
  1.12000E-002	  1.69176E-003
  1.20000E-002	  1.69133E-003
  1.28000E-002	  1.36430E-003
  1.44000E-002	  1.36194E-003
  1.60000E-002	  1.36073E-003
  1.76000E-002	  1.35947E-003
  1.92000E-002	  1.35768E-003
  2.08000E-002	  1.35595E-003
  2.24000E-002	  1.35458E-003
  2.40000E-002	  1.35290E-003
  2.56000E-002	  1.15562E-003
  2.88000E-002	  1.15214E-003
  3.20000E-002	  1.14912E-003
  3.52000E-002	  1.14642E-003
  3.84000E-002	  1.14326E-003
  4.16000E-002	  1.14026E-003
  4.48000E-002	  1.13728E-003
  4.80000E-002	  1.13449E-003
  5.12000E-002	  1.02080E-003
  5.76000E-002	  1.01373E-003
  6.40000E-002	  1.00756E-003
  7.04000E-002	  1.00153E-003
  7.68000E-002	  9.95468E-004
  8.32000E-002	  9.89329E-004
  8.96000E-002	  9.83172E-004
  9.60000E-002	  9.77142E-004
  1.02400E-001	  9.09324E-004
  1.15200E-001	  8.95279E-004
  1.28000E-001	  8.83225E-004
  1.40800E-001	  8.71185E-004
  1.53600E-001	  8.59700E-004
  1.66400E-001	  8.48380E-004
  1.79200E-001	  8.37579E-004
  1.92000E-001	  8.27665E-004
  2.04800E-001	  7.80578E-004
  2.30400E-001	  7.61590E-004
  2.56000E-001	  7.45759E-004
  2.81600E-001	  7.31052E-004
  3.07200E-001	  7.17514E-004
  3.32800E-001	  7.05664E-004
  3.58400E-001	  6.94732E-004
  3.84000E-001	  6.85060E-004
  4.09600E-001	  6.46738E-004
  4.60800E-001	  6.30992E-004
  5.12000E-001	  6.18790E-004
  5.63200E-001	  6.08954E-004
  6.14400E-001	  6.00834E-004
  6.65600E-001	  5.95154E-004
  7.16800E-001	  5.90748E-004
  7.68000E-001	  5.88210E-004
  8.19200E-001	  5.75227E-004
  9.21600E-001	  5.70792E-004
  1.02400E+000	  5.62907E-004
  1.12640E+000	  5.62907E-004
  1.22880E+000	  5.62907E-004
  1.33120E+000	  5.62907E-004
  1.43360E+000	  5.62907E-004
  1.53600E+000	  5.62907E-004
  1.63840E+000	  5.32755E-004
  1.84320E+000	  5.32755E-004
  2.04800E+000	  5.32755E-004
  2.25280E+000	  5.32755E-004
  2.45760E+000	  5.32755E-004
  2.66240E+000	  5.32755E-004
  2.86720E+000	  5.32755E-004
  3.07200E+000	  5.32755E-004
  3.27680E+000	  4.80483E-004
  3.68640E+000	  4.80483E-004
  4.09600E+000	  4.80483E-004
  4.50560E+000	  4.80483E-004
  4.91520E+000	  4.80483E-004
  5.32480E+000	  4.80483E-004
  5.73440E+000	  4.80483E-004
  6.14400E+000	  4.80483E-004
  6.55360E+000	  4.07777E-004
  7.37280E+000	  4.07777E-004
  8.19200E+000	  4.07777E-004
  9.01120E+000	  4.07777E-004
  9.83040E+000	  4.07777E-004
  1.06496E+001	  4.07777E-004
  1.14688E+001	  4.07777E-004
  1.22880E+001	  4.07777E-004
  1.31072E+001	  3.26408E-004
  1.47456E+001	  3.26408E-004
  1.63840E+001	  3.26408E-004
  1.80224E+001	  3.26408E-004
  1.96608E+001	  3.26408E-004
  2.12992E+001	  3.26408E-004
  2.29376E+001	  3.26408E-004
  2.45760E+001	  3.26408E-004
  2.62144E+001	  2.45566E-004
  2.94912E+001	  2.45566E-004
  3.27680E+001	  2.45566E-004
  3.60448E+001	  2.45566E-004
  3.93216E+001	  2.45566E-004
  4.25984E+001	  2.45566E-004
  4.58752E+001	  2.45566E-004
  4.91520E+001	  2.45566E-004
  5.24288E+001	  1.78901E-004
  5.89824E+001	  1.78901E-004
  6.55360E+001	  1.78901E-004
  7.20896E+001	  1.78901E-004
  7.86432E+001	  1.78901E-004
  8.51968E+001	  1.78901E-004
  9.17504E+001	  1.78901E-004
  9.83040E+001	  1.78901E-004
  1.04858E+002	  1.28363E-004
  1.17965E+002	  1.28363E-004
  1.31072E+002	  1.28363E-004
  1.44179E+002	  1.28363E-004
  1.57286E+002	  1.28363E-004
  1.70394E+002	  1.28363E-004
  1.83501E+002	  1.28363E-004
  1.96608E+002	  1.28363E-004
  2.09715E+002	  9.14243E-005
  2.35930E+002	  9.14243E-005
  2.62144E+002	  9.14243E-005
  2.88358E+002	  9.14243E-005
  3.14573E+002	  9.14243E-005
  3.40787E+002	  9.14243E-005
  3.67002E+002	  9.14243E-005
  3.93216E+002	  9.14243E-005
  4.19430E+002	  6.48794E-005
  4.71859E+002	  6.48794E-005
  5.24288E+002	  6.48794E-005
  5.76717E+002	  6.48794E-005
  6.29146E+002	  6.48794E-005
  6.81574E+002	  6.48794E-005
  7.34003E+002	  6.48794E-005
  7.86432E+002	  6.48794E-005
  8.38861E+002	  4.59589E-005
  9.43718E+002	  4.59589E-005
  1.04858E+003	  4.59589E-005
  1.15343E+003	  4.59589E-005
  1.25829E+003	  4.59589E-005
  1.36315E+003	  4.59589E-005
  1.46801E+003	  4.59589E-005
  1.57286E+003	  4.59589E-005
  1.67772E+003	  3.25269E-005
  1.88744E+003	  3.25269E-005
  2.09715E+003	  3.25269E-005
  2.30687E+003	  3.25269E-005
  2.51658E+003	  3.25269E-005
  2.72630E+003	  3.25269E-005
  2.93601E+003	  3.25269E-005
  3.14573E+003	  3.25269E-005
  3.35544E+003	  2.30103E-005
  3.77487E+003	  2.30103E-005
  4.19430E+003	  2.30103E-005
  4.61373E+003	  2.30103E-005
  5.03317E+003	  2.30103E-005
  5.45260E+003	  2.30103E-005
  5.87203E+003	  2.30103E-005
  6.29146E+003	  2.30103E-005
  6.71089E+003	  1.62744E-005
  7.54975E+003	  1.62744E-005
  8.38861E+003	  1.62744E-005
  9.22747E+003	  1.62744E-005
  1.00663E+004	  1.62744E-005
  1.09052E+004	  1.62744E-005
  1.17441E+004	  1.62744E-005
