ALV-7004 or ALV-7004/FAST Data
Date :	"3/27/2010"
Time :	"3:06:20 PM"
Samplename : 	"BSA 1 g/l in YCl3 83mM (second repetition)"
SampMemo(0) : 	""
SampMemo(1) : 	""
SampMemo(2) : 	""
SampMemo(3) : 	""
SampMemo(4) : 	""
SampMemo(5) : 	""
SampMemo(6) : 	""
SampMemo(7) : 	""
SampMemo(8) : 	""
SampMemo(9) : 	""
Temperature [K] :	     295.79568
Viscosity [cp]  :	       0.94018
Refractive Index:	       1.33200
Wavelength [nm] :	     632.80000
Angle [°]       :	      90.00000
Duration [s]    :	        70
Runs            :	         1
Mode            :	"C-CH0/1+1/0"
MeanCR0 [kHz]   :	     118.00963
MeanCR1 [kHz]   :	     135.66563
MeanCR2 [kHz]   :	       0.00000
MeanCR3 [kHz]   :	       0.00000

"Correlation"
  3.12500E-006	  6.81723E-001	  7.05156E-001	 -2.00000E+000	 -2.00000E+000
  6.25000E-006	  6.37201E-001	  6.00189E-001	 -2.00000E+000	 -2.00000E+000
  9.37500E-006	  6.32389E-001	  6.37631E-001	 -2.00000E+000	 -2.00000E+000
  1.25000E-005	  6.26094E-001	  6.05103E-001	 -2.00000E+000	 -2.00000E+000
  1.56250E-005	  6.69826E-001	  6.97414E-001	 -2.00000E+000	 -2.00000E+000
  1.87500E-005	  6.73418E-001	  7.10271E-001	 -2.00000E+000	 -2.00000E+000
  2.18750E-005	  6.56285E-001	  6.66833E-001	 -2.00000E+000	 -2.00000E+000
  2.50000E-005	  6.42101E-001	  6.74233E-001	 -2.00000E+000	 -2.00000E+000
  2.81250E-005	  6.63376E-001	  6.90226E-001	 -2.00000E+000	 -2.00000E+000
  3.12500E-005	  6.66168E-001	  6.31130E-001	 -2.00000E+000	 -2.00000E+000
  3.43750E-005	  6.50434E-001	  6.60268E-001	 -2.00000E+000	 -2.00000E+000
  3.75000E-005	  6.67245E-001	  6.69960E-001	 -2.00000E+000	 -2.00000E+000
  4.06250E-005	  6.52810E-001	  6.35983E-001	 -2.00000E+000	  1.19902E+000
  4.37500E-005	  6.22424E-001	  6.08597E-001	 -2.00000E+000	  1.14259E+000
  4.68750E-005	  7.10560E-001	  6.72603E-001	 -2.00000E+000	 -5.05275E-001
  5.00000E-005	  6.72545E-001	  6.70862E-001	 -2.00000E+000	  2.03479E+000
  5.62500E-005	  6.56701E-001	  6.29434E-001	 -2.00000E+000	  1.04585E+000
  6.25000E-005	  6.65630E-001	  6.38269E-001	 -2.00000E+000	  1.05832E+000
  6.87500E-005	  6.45743E-001	  6.62134E-001	 -1.89994E+000	  1.13946E+000
  7.50000E-005	  6.54000E-001	  6.50164E-001	  1.76695E+000	  7.99887E-001
  8.12500E-005	  6.51241E-001	  6.36950E-001	  8.49473E-001	  8.59773E-001
  8.75000E-005	  6.56137E-001	  6.41260E-001	  8.76704E-001	  7.97488E-001
  9.37500E-005	  6.41068E-001	  6.60949E-001	  8.46153E-001	  8.26347E-001
  1.00000E-004	  6.52139E-001	  6.65135E-001	  7.45915E-001	  7.54426E-001
  1.12500E-004	  6.63562E-001	  6.63705E-001	  7.51954E-001	  7.39307E-001
  1.25000E-004	  6.58401E-001	  6.68828E-001	  7.00993E-001	  7.65467E-001
  1.37500E-004	  6.59524E-001	  6.57884E-001	  6.76913E-001	  7.40342E-001
  1.50000E-004	  6.50068E-001	  6.62531E-001	  6.45806E-001	  7.22240E-001
  1.62500E-004	  6.37200E-001	  6.36188E-001	  6.64687E-001	  7.16261E-001
  1.75000E-004	  6.42651E-001	  6.50627E-001	  6.82269E-001	  7.14475E-001
  1.87500E-004	  6.40172E-001	  6.15751E-001	  6.77825E-001	  7.03903E-001
  2.00000E-004	  6.42344E-001	  6.37818E-001	  6.59452E-001	  6.99098E-001
  2.25000E-004	  6.39346E-001	  6.50054E-001	  6.45625E-001	  7.10840E-001
  2.50000E-004	  6.48569E-001	  6.38970E-001	  6.43412E-001	  6.82518E-001
  2.75000E-004	  6.43948E-001	  6.57664E-001	  6.47609E-001	  6.94574E-001
  3.00000E-004	  6.47860E-001	  6.49251E-001	  6.41063E-001	  6.84788E-001
  3.25000E-004	  6.55499E-001	  6.59911E-001	  6.48839E-001	  6.79218E-001
  3.50000E-004	  6.46570E-001	  6.57867E-001	  6.45421E-001	  6.88307E-001
  3.75000E-004	  6.39305E-001	  6.46336E-001	  6.46776E-001	  6.72182E-001
  4.00000E-004	  6.41391E-001	  6.45521E-001	  6.65470E-001	  6.69821E-001
  4.50000E-004	  6.45055E-001	  6.36501E-001	  6.56309E-001	  6.75467E-001
  5.00000E-004	  6.42712E-001	  6.42173E-001	  6.47176E-001	  6.73527E-001
  5.50000E-004	  6.54532E-001	  6.57074E-001	  6.50282E-001	  6.71021E-001
  6.00000E-004	  6.44759E-001	  6.43434E-001	  6.48075E-001	  6.64015E-001
  6.50000E-004	  6.51107E-001	  6.51250E-001	  6.48789E-001	  6.57285E-001
  7.00000E-004	  6.42959E-001	  6.46170E-001	  6.39541E-001	  6.67308E-001
  7.50000E-004	  6.40567E-001	  6.40417E-001	  6.56919E-001	  6.64774E-001
  8.00000E-004	  6.39762E-001	  6.41662E-001	  6.54778E-001	  6.58250E-001
  9.00000E-004	  6.35371E-001	  6.32713E-001	  6.36790E-001	  6.54734E-001
  1.00000E-003	  6.39700E-001	  6.43351E-001	  6.40566E-001	  6.49483E-001
  1.10000E-003	  6.36032E-001	  6.37311E-001	  6.32918E-001	  6.43462E-001
  1.20000E-003	  6.30240E-001	  6.27388E-001	  6.33832E-001	  6.57671E-001
  1.30000E-003	  6.32196E-001	  6.40130E-001	  6.28324E-001	  6.51749E-001
  1.40000E-003	  6.25393E-001	  6.16696E-001	  6.29569E-001	  6.47215E-001
  1.50000E-003	  6.33601E-001	  6.39801E-001	  6.27548E-001	  6.39592E-001
  1.60000E-003	  6.25528E-001	  6.28860E-001	  6.19191E-001	  6.32500E-001
  1.80000E-003	  6.21746E-001	  6.22622E-001	  6.25389E-001	  6.29191E-001
  2.00000E-003	  6.15632E-001	  6.17769E-001	  6.17823E-001	  6.34373E-001
  2.20000E-003	  6.12323E-001	  6.11335E-001	  6.16549E-001	  6.28195E-001
  2.40000E-003	  6.11680E-001	  6.12186E-001	  6.17527E-001	  6.25452E-001
  2.60000E-003	  6.06120E-001	  6.05919E-001	  6.12436E-001	  6.16336E-001
  2.80000E-003	  6.05650E-001	  6.04599E-001	  6.09221E-001	  6.16830E-001
  3.00000E-003	  6.00749E-001	  6.00389E-001	  6.03345E-001	  6.14857E-001
  3.20000E-003	  5.98825E-001	  6.01066E-001	  6.01040E-001	  6.13013E-001
  3.60000E-003	  5.94307E-001	  5.96470E-001	  5.96240E-001	  6.00328E-001
  4.00000E-003	  5.84133E-001	  5.89335E-001	  5.86757E-001	  5.97544E-001
  4.40000E-003	  5.80688E-001	  5.80801E-001	  5.77142E-001	  5.89126E-001
  4.80000E-003	  5.73034E-001	  5.75389E-001	  5.80318E-001	  5.83416E-001
  5.20000E-003	  5.69514E-001	  5.70457E-001	  5.73900E-001	  5.78564E-001
  5.60000E-003	  5.65393E-001	  5.62004E-001	  5.67544E-001	  5.76776E-001
  6.00000E-003	  5.55580E-001	  5.57090E-001	  5.58246E-001	  5.69316E-001
  6.40000E-003	  5.49131E-001	  5.49740E-001	  5.55004E-001	  5.63979E-001
  7.20000E-003	  5.39868E-001	  5.40539E-001	  5.46042E-001	  5.48751E-001
  8.00000E-003	  5.29676E-001	  5.30643E-001	  5.37021E-001	  5.34699E-001
  8.80000E-003	  5.17428E-001	  5.18178E-001	  5.24452E-001	  5.25267E-001
  9.60000E-003	  5.06451E-001	  5.05853E-001	  5.12603E-001	  5.15285E-001
  1.04000E-002	  4.99834E-001	  5.00370E-001	  5.03229E-001	  5.06115E-001
  1.12000E-002	  4.88035E-001	  4.88432E-001	  4.98682E-001	  4.94804E-001
  1.20000E-002	  4.78855E-001	  4.79076E-001	  4.84704E-001	  4.86426E-001
  1.28000E-002	  4.70448E-001	  4.70630E-001	  4.78351E-001	  4.77619E-001
  1.44000E-002	  4.51058E-001	  4.51420E-001	  4.57143E-001	  4.58870E-001
  1.60000E-002	  4.34954E-001	  4.35256E-001	  4.39534E-001	  4.41994E-001
  1.76000E-002	  4.20231E-001	  4.19402E-001	  4.23680E-001	  4.25741E-001
  1.92000E-002	  4.01674E-001	  4.01571E-001	  4.09543E-001	  4.08967E-001
  2.08000E-002	  3.88790E-001	  3.87872E-001	  3.94039E-001	  3.92111E-001
  2.24000E-002	  3.71652E-001	  3.70347E-001	  3.74926E-001	  3.80109E-001
  2.40000E-002	  3.58946E-001	  3.57670E-001	  3.63918E-001	  3.64969E-001
  2.56000E-002	  3.44807E-001	  3.43888E-001	  3.52636E-001	  3.52076E-001
  2.88000E-002	  3.20505E-001	  3.19786E-001	  3.25544E-001	  3.25286E-001
  3.20000E-002	  2.96532E-001	  2.96232E-001	  3.03107E-001	  3.02550E-001
  3.52000E-002	  2.76025E-001	  2.75348E-001	  2.80616E-001	  2.79679E-001
  3.84000E-002	  2.55976E-001	  2.55132E-001	  2.60191E-001	  2.59934E-001
  4.16000E-002	  2.37398E-001	  2.37981E-001	  2.40674E-001	  2.41435E-001
  4.48000E-002	  2.20724E-001	  2.20927E-001	  2.23553E-001	  2.25096E-001
  4.80000E-002	  2.04942E-001	  2.03917E-001	  2.08743E-001	  2.08332E-001
  5.12000E-002	  1.90710E-001	  1.90237E-001	  1.93550E-001	  1.93798E-001
  5.76000E-002	  1.63667E-001	  1.63730E-001	  1.66071E-001	  1.67231E-001
  6.40000E-002	  1.42563E-001	  1.42918E-001	  1.43869E-001	  1.45592E-001
  7.04000E-002	  1.24151E-001	  1.23951E-001	  1.25331E-001	  1.25890E-001
  7.68000E-002	  1.07464E-001	  1.07189E-001	  1.09393E-001	  1.09413E-001
  8.32000E-002	  9.33462E-002	  9.34563E-002	  9.47067E-002	  9.43338E-002
  8.96000E-002	  8.15766E-002	  8.07414E-002	  8.16721E-002	  8.20117E-002
  9.60000E-002	  7.13741E-002	  7.14558E-002	  7.11872E-002	  7.23603E-002
  1.02400E-001	  6.22302E-002	  6.23945E-002	  6.38403E-002	  6.33939E-002
  1.15200E-001	  4.78492E-002	  4.78494E-002	  4.82385E-002	  4.91274E-002
  1.28000E-001	  3.72341E-002	  3.70463E-002	  3.77044E-002	  3.76991E-002
  1.40800E-001	  2.89254E-002	  2.87486E-002	  2.84881E-002	  2.94682E-002
  1.53600E-001	  2.26252E-002	  2.26852E-002	  2.25257E-002	  2.35129E-002
  1.66400E-001	  1.77102E-002	  1.76388E-002	  1.74798E-002	  1.82800E-002
  1.79200E-001	  1.43355E-002	  1.44618E-002	  1.45411E-002	  1.36860E-002
  1.92000E-001	  1.11942E-002	  1.12217E-002	  1.05079E-002	  1.17888E-002
  2.04800E-001	  9.25989E-003	  1.00195E-002	  9.23359E-003	  9.48749E-003
  2.30400E-001	  5.96822E-003	  5.92719E-003	  5.87810E-003	  5.73473E-003
  2.56000E-001	  3.58745E-003	  3.54648E-003	  3.96651E-003	  4.07314E-003
  2.81600E-001	  2.81318E-003	  3.12679E-003	  2.17820E-003	  2.84885E-003
  3.07200E-001	  2.27956E-003	  2.42324E-003	  2.26508E-003	  2.16150E-003
  3.32800E-001	  2.16269E-003	  2.62059E-003	  1.83952E-003	  1.65759E-003
  3.58400E-001	  1.81155E-003	  1.65826E-003	  1.54238E-003	  2.03061E-003
  3.84000E-001	  1.62147E-003	  1.74119E-003	  1.56821E-003	  1.45952E-003
  4.09600E-001	  1.52110E-003	  1.60392E-003	  1.54908E-003	  1.30422E-003
  4.60800E-001	  1.08004E-003	  9.88472E-004	  1.19701E-003	  1.37694E-003
  5.12000E-001	  6.89463E-004	  2.84579E-004	  3.61423E-004	  1.17431E-003
  5.63200E-001	  1.02472E-003	  1.00421E-003	  7.81141E-004	  1.23412E-003
  6.14400E-001	  6.67427E-004	  8.89366E-004	  4.20770E-004	  7.18129E-004
  6.65600E-001	  1.14123E-004	  3.89224E-005	 -1.97830E-004	  2.16979E-004
  7.16800E-001	 -2.86845E-004	 -2.66006E-004	 -2.45870E-004	 -3.96952E-004
  7.68000E-001	 -6.19271E-004	 -5.01994E-004	 -4.03407E-004	 -6.36195E-004
  8.19200E-001	 -2.53972E-004	 -1.49788E-005	 -8.23878E-005	 -3.81043E-005
  9.21600E-001	  5.19614E-005	 -1.98484E-005	 -3.29178E-004	  5.74280E-004
  1.02400E+000	  1.53940E-005	 -9.93027E-005	 -3.09471E-004	 -1.73682E-004
  1.12640E+000	 -1.19774E-004	 -3.72583E-004	 -2.51794E-004	 -1.67378E-004
  1.22880E+000	  1.25638E-004	  2.10206E-004	  7.94668E-005	 -3.54173E-004
  1.33120E+000	  2.00876E-004	  2.29754E-004	  1.13674E-004	  1.02372E-004
  1.43360E+000	 -7.50499E-005	 -5.24694E-004	 -2.74419E-004	  2.58409E-004
  1.53600E+000	 -1.06369E-004	 -1.86200E-004	 -6.26561E-004	 -1.11003E-004
  1.63840E+000	 -4.14661E-004	 -4.42581E-004	 -6.85060E-004	 -2.67892E-004
  1.84320E+000	 -4.15476E-005	  4.11389E-004	 -1.44917E-004	  6.91690E-005
  2.04800E+000	 -1.48386E-004	 -5.12270E-005	  5.72689E-005	 -2.63606E-004
  2.25280E+000	  3.15972E-005	  2.08989E-006	  3.33462E-004	  9.15681E-005
  2.45760E+000	 -4.02702E-005	  4.11585E-005	 -1.12852E-004	 -1.36976E-004
  2.66240E+000	 -2.52089E-004	 -5.45236E-004	 -1.19637E-004	 -1.74098E-004
  2.86720E+000	 -2.53434E-004	 -1.90996E-004	 -1.76038E-004	 -9.38995E-005
  3.07200E+000	  1.24428E-004	  3.25417E-004	 -4.12822E-005	  4.19838E-004
  3.27680E+000	  3.31207E-004	  4.59600E-004	  2.09735E-004	  3.00577E-004
  3.68640E+000	 -4.10136E-004	 -5.26287E-004	 -5.30125E-004	 -1.52267E-004
  4.09600E+000	  1.65137E-004	  3.86660E-004	  3.20846E-004	  1.13656E-004
  4.50560E+000	 -4.63446E-004	 -3.63175E-004	 -3.21274E-004	 -4.33839E-004
  4.91520E+000	  5.01326E-005	  7.19242E-005	  1.07829E-004	 -4.90239E-007
  5.32480E+000	  2.71035E-004	  4.85881E-004	  2.59013E-004	  3.09261E-004
  5.73440E+000	 -3.89503E-004	 -4.58808E-004	 -3.29945E-004	 -3.77237E-004
  6.14400E+000	 -1.92028E-004	 -3.37160E-004	 -1.02720E-004	 -1.02692E-004
  6.55360E+000	 -1.74004E-004	 -3.14343E-004	 -2.31402E-004	 -2.97670E-005
  7.37280E+000	 -2.04720E-004	 -2.16863E-004	 -3.13657E-004	 -9.72221E-005
  8.19200E+000	  2.35549E-004	  2.87006E-004	  1.32147E-004	  3.32711E-004
  9.01120E+000	 -1.50473E-004	 -2.10307E-004	  7.79430E-005	 -2.09139E-004
  9.83040E+000	 -6.38409E-005	  1.07933E-004	 -1.74583E-004	  5.60221E-005
  1.06496E+001	  1.06620E-004	  1.69072E-004	  1.28761E-004	  9.06892E-005
  1.14688E+001	  2.06337E-004	  2.31025E-004	  1.77719E-004	  2.59494E-004
  1.22880E+001	  1.42003E-004	  1.47987E-004	  2.23593E-004	  2.99152E-005
  1.31072E+001	  7.23855E-005	  4.74588E-005	  2.17444E-005	  7.25313E-005
  1.47456E+001	  2.29842E-006	 -8.67038E-006	  7.70640E-005	 -1.15902E-004
  1.63840E+001	  5.95505E-005	  1.47628E-004	 -4.14450E-005	  1.45110E-004
  1.80224E+001	  3.59219E-004	  3.37926E-004	  4.91978E-004	  2.78562E-004
  1.96608E+001	  1.23358E-004	  1.15173E-004	  1.15843E-004	  1.29639E-004
  2.12992E+001	 -1.17076E-004	 -1.74333E-004	 -2.19824E-004	  8.74295E-005
  2.29376E+001	  1.82623E-004	  8.71916E-005	  2.13704E-004	  3.82713E-005
  2.45760E+001	  6.51716E-005	  1.66533E-004	  6.20846E-005	  6.04156E-005
  2.62144E+001	  1.12195E-004	  1.40000E-004	  6.22389E-005	  1.31514E-004
  2.94912E+001	 -6.21258E-005	 -3.11819E-005	 -1.50294E-004	 -9.08657E-005
  3.27680E+001	 -5.70997E-005	 -1.12033E-004	 -3.61023E-006	 -1.25260E-004
  3.60448E+001	  1.12595E-004	  1.27807E-004	  1.23228E-004	  1.60113E-004
  3.93216E+001	 -9.05786E-006	 -9.37901E-005	  5.79602E-005	 -6.83404E-005
  4.25984E+001	 -1.07195E-004	 -4.99076E-005	 -1.33911E-004	 -1.06774E-004
  4.58752E+001	 -1.75120E-005	  3.59584E-005	 -1.75684E-005	 -6.56934E-005
  4.91520E+001	 -5.49865E-005	 -7.29000E-005	  3.93064E-005	 -6.39001E-005
  5.24288E+001	  1.34823E-005	  3.15599E-005	  2.08650E-005	  3.21956E-005
  5.89824E+001	  5.08542E-005	  2.32863E-005	  8.85919E-006	  3.98121E-005
  6.55360E+001	 -7.94498E-006	 -3.03423E-005	  3.00492E-005	 -5.75826E-005
  7.20896E+001	  4.46849E-005	  1.93961E-005	  9.00217E-006	  5.78385E-005
  7.86432E+001	 -1.58868E-004	 -1.53624E-004	 -1.54199E-004	 -1.71793E-004
  8.51968E+001	 -5.69166E-005	 -2.65951E-005	 -8.50336E-005	 -5.54474E-005
  9.17504E+001	  4.64759E-005	  5.86610E-005	 -1.74371E-006	  7.41563E-005
  9.83040E+001	 -7.89645E-005	 -8.52195E-005	 -9.18092E-005	 -6.21178E-005
  1.04858E+002	 -9.69323E-005	 -1.08137E-004	 -8.43261E-005	 -4.83856E-005
  1.17965E+002	 -1.62694E-005	 -8.28008E-006	 -1.61107E-005	  2.64994E-005
  1.31072E+002	 -3.60204E-005	 -9.30077E-006	 -3.42058E-005	 -3.34611E-006
  1.44179E+002	 -1.72833E-005	 -2.14564E-005	 -4.42016E-005	 -2.52782E-006
  1.57286E+002	  2.68094E-006	  4.18511E-005	 -5.61737E-006	 -1.62237E-005
  1.70394E+002	  4.12558E-005	  6.52802E-005	  5.28192E-005	  4.49350E-005
  1.83501E+002	 -3.96736E-006	 -3.74374E-005	 -1.44139E-006	 -1.14759E-005
  1.96608E+002	  3.45673E-005	  5.57842E-005	  5.30813E-005	  3.06582E-005
  2.09715E+002	  3.97080E-005	  7.05536E-005	  6.19639E-005	  2.03180E-005
  2.35930E+002	 -7.23756E-006	 -1.62756E-005	  7.95558E-006	 -5.04834E-005
  2.62144E+002	 -3.52815E-005	 -1.59873E-005	 -2.16827E-005	 -3.87514E-005
  2.88358E+002	  8.97044E-006	 -6.35182E-006	 -4.20335E-007	  4.08529E-005
  3.14573E+002	  3.05545E-005	  3.46415E-005	  3.27109E-005	  2.73186E-005
  3.40787E+002	 -3.94656E-005	 -3.89732E-005	 -4.73566E-006	 -3.75294E-005
  3.67002E+002	  1.19919E-005	  3.93519E-006	  5.32815E-005	  6.59019E-006
  3.93216E+002	 -1.62497E-005	 -2.19830E-005	 -1.03009E-005	 -8.67955E-006
  4.19430E+002	 -2.87591E-005	 -1.03778E-005	 -4.41082E-005	 -5.05061E-005
  4.71859E+002	 -5.48755E-005	 -1.68248E-005	 -4.71622E-005	 -5.72672E-005
  5.24288E+002	 -2.07129E-005	 -2.80531E-005	 -1.73346E-005	 -1.33568E-005
  5.76717E+002	 -2.52269E-005	 -3.51620E-008	 -3.62411E-006	 -2.66828E-005
  6.29146E+002	  1.47449E-005	 -1.27814E-005	  2.59314E-005	  1.32094E-005
  6.81574E+002	  4.21777E-005	  4.59944E-005	  5.85758E-005	  3.95714E-005
  7.34003E+002	  8.34682E-006	  1.92091E-006	  3.17175E-005	 -5.42720E-006
  7.86432E+002	 -4.09952E-006	 -1.86339E-005	  9.83828E-006	  1.39282E-005
  8.38861E+002	  1.03477E-005	  6.82611E-007	  2.28013E-005	  8.98952E-006
  9.43718E+002	 -9.02196E-006	 -1.27488E-005	  3.19025E-006	 -1.66913E-005
  1.04858E+003	  2.17925E-006	  1.48396E-005	  6.40113E-006	  8.18383E-006
  1.15343E+003	  1.96041E-005	  1.67445E-005	  1.78778E-005	  1.48049E-005
  1.25829E+003	 -5.79489E-006	 -1.94265E-005	 -1.08687E-006	 -1.08985E-005
  1.36315E+003	 -3.67045E-006	  9.28565E-006	 -1.54037E-005	 -2.45088E-006
  1.46801E+003	  9.75954E-006	  1.37619E-006	  6.87443E-006	  1.31451E-005
  1.57286E+003	 -2.41792E-005	 -3.20513E-005	 -1.10487E-005	 -2.96492E-005
  1.67772E+003	 -1.29930E-005	 -1.01321E-005	 -1.66998E-006	 -2.31923E-005
  1.88744E+003	 -9.19996E-006	 -1.82744E-005	 -1.35902E-005	 -9.05217E-006
  2.09715E+003	  3.84458E-006	 -7.93171E-007	  8.23954E-006	 -5.19114E-006
  2.30687E+003	  5.99470E-006	  3.60878E-006	  7.80901E-006	  5.41252E-008
  2.51658E+003	  5.24551E-006	  6.31101E-006	 -6.55700E-006	  5.69783E-006
  2.72630E+003	 -6.11102E-006	 -6.91675E-006	 -2.95158E-006	 -1.56112E-005
  2.93601E+003	 -5.13130E-006	 -4.26766E-006	 -1.20324E-005	  7.59226E-006
  3.14573E+003	  4.72910E-006	  2.22586E-005	  1.36676E-005	  5.24890E-006
  3.35544E+003	  1.19431E-005	  1.42584E-005	  1.95683E-005	  9.21649E-006
  3.77487E+003	 -1.74488E-005	 -2.11320E-005	 -1.58004E-005	 -1.56349E-005
  4.19430E+003	  1.43621E-006	  2.71098E-006	  3.52811E-006	 -2.39426E-006
  4.61373E+003	  8.82954E-006	  2.38070E-008	  9.36599E-006	  9.89583E-006
  5.03317E+003	 -6.95821E-006	 -1.50250E-005	 -8.44744E-006	  4.14202E-006
  5.45260E+003	 -3.87224E-006	 -3.97545E-006	 -4.62444E-006	 -4.01107E-006
  5.87203E+003	 -4.04468E-006	 -1.14695E-005	 -8.72565E-006	  2.25529E-006
  6.29146E+003	  9.31777E-007	  1.51090E-006	 -3.38500E-006	  2.22832E-006
  6.71089E+003	 -5.46174E-006	 -1.30649E-006	 -5.55964E-006	 -9.55222E-006
  7.54975E+003	  3.66679E-006	 -5.48743E-007	 -8.52342E-006	  9.85783E-006
  8.38861E+003	  1.77085E-006	  4.70502E-006	  3.53920E-006	  1.14686E-006
  9.22747E+003	 -1.36665E-005	 -1.54587E-005	 -1.26739E-005	 -9.58376E-006
  1.00663E+004	  7.46143E-006	  1.02800E-005	  7.13714E-006	  8.39983E-006
  1.09052E+004	 -3.07533E-006	 -8.35680E-006	 -7.30698E-006	 -5.69445E-006
  1.17441E+004	  3.12181E-006	  3.76472E-006	 -6.40475E-006	  9.89636E-006

"Count Rate"
       0.27344	     118.32823	     137.08803	     118.32823	     137.08803
       0.54688	     116.65736	     135.35135	     116.65736	     135.35135
       0.82031	     119.36292	     136.05699	     119.36292	     136.05699
       1.09375	     120.29890	     135.80472	     120.29890	     135.80472
       1.36719	     117.86024	     135.11369	     117.86024	     135.11369
       1.64063	     118.91687	     137.09169	     118.91687	     137.09169
       1.91406	     119.46896	     137.68399	     119.46896	     137.68399
       2.18750	     118.03208	     137.65839	     118.03208	     137.65839
       2.46094	     116.15646	     132.73354	     116.15646	     132.73354
       2.73438	     118.05036	     133.64026	     118.05036	     133.64026
       3.00781	     119.04118	     136.25443	     119.04118	     136.25443
       3.28125	     117.21310	     135.24898	     117.21310	     135.24898
       3.55469	     118.32092	     136.24345	     118.32092	     136.24345
       3.82813	     118.56223	     135.26726	     118.56223	     135.26726
       4.10156	     116.28443	     136.36044	     116.28443	     136.36044
       4.37500	     120.08685	     138.70406	     120.08685	     138.70406
       4.64844	     117.05222	     134.51044	     117.05222	     134.51044
       4.92188	     117.53850	     137.17212	     117.53850	     137.17212
       5.19531	     113.24250	     132.70062	     113.24250	     132.70062
       5.46875	     117.42516	     136.01311	     117.42516	     136.01311
       5.74219	     116.82555	     134.03879	     116.82555	     134.03879
       6.01563	     117.82002	     135.93634	     117.82002	     135.93634
       6.28906	     119.57133	     138.38962	     119.57133	     138.38962
       6.56250	     117.92605	     135.15392	     117.92605	     135.15392
       6.83594	     120.51462	     138.29457	     120.51462	     138.29457
       7.10938	     116.24787	     134.91626	     116.24787	     134.91626
       7.38281	     117.18019	     134.96014	     117.18019	     134.96014
       7.65625	     118.40866	     134.97476	     118.40866	     134.97476
       7.92969	     117.53484	     134.96014	     117.53484	     134.96014
       8.20313	     117.94067	     135.99118	     117.94067	     135.99118
       8.47656	     118.40866	     136.41164	     118.40866	     136.41164
       8.75000	     117.48000	     136.72241	     117.48000	     136.72241
       9.02344	     117.54946	     137.28912	     117.54946	     137.28912
       9.29688	     115.08155	     134.59818	     115.08155	     134.59818
       9.57031	     118.38673	     136.83940	     118.38673	     136.83940
       9.84375	     117.06319	     135.43544	     117.06319	     135.43544
      10.11719	     117.39956	     136.32755	     117.39956	     136.32755
      10.39063	     119.54208	     135.31844	     119.54208	     135.31844
      10.66406	     116.45261	     135.45372	     116.45261	     135.45372
      10.93750	     117.54581	     134.55064	     117.54581	     134.55064
      11.21094	     120.79980	     138.86858	     120.79980	     138.86858
      11.48438	     117.13631	     135.83762	     117.13631	     135.83762
      11.75781	     118.23317	     136.84673	     118.23317	     136.84673
      12.03125	     118.24780	     135.92537	     118.24780	     135.92537
      12.30469	     119.00462	     136.79553	     119.00462	     136.79553
      12.57813	     118.09423	     135.48297	     118.09423	     135.48297
      12.85156	     119.49820	     137.25255	     119.49820	     137.25255
      13.12500	     116.73779	     134.17406	     116.73779	     134.17406
      13.39844	     117.85658	     135.43178	     117.85658	     135.43178
      13.67188	     118.04305	     136.35313	     118.04305	     136.35313
      13.94531	     117.05222	     133.43918	     117.05222	     133.43918
      14.21875	     117.91874	     135.91806	     117.91874	     135.91806
      14.49219	     118.17833	     135.58168	     118.17833	     135.58168
      14.76563	     119.12893	     137.35858	     119.12893	     137.35858
      15.03906	     118.74503	     136.64198	     118.74503	     136.64198
      15.31250	     116.95717	     135.83397	     116.95717	     135.83397
      15.58594	     118.49276	     134.30934	     118.49276	     134.30934
      15.85938	     118.77794	     134.96014	     118.77794	     134.96014
      16.13281	     120.07587	     137.68033	     120.07587	     137.68033
      16.40625	     119.53477	     135.31113	     119.53477	     135.31113
      16.67969	     120.76324	     136.62369	     120.76324	     136.62369
      16.95313	     120.29159	     137.15018	     120.29159	     137.15018
      17.22656	     117.33009	     135.40619	     117.33009	     135.40619
      17.50000	     118.64266	     134.77367	     118.64266	     134.77367
      17.77344	     118.23317	     135.79739	     118.23317	     135.79739
      18.04688	     116.39412	     135.43544	     116.39412	     135.43544
      18.32031	     119.42873	     137.46828	     119.42873	     137.46828
      18.59375	     117.45441	     137.68399	     117.45441	     137.68399
      18.86719	     116.20765	     136.45551	     116.20765	     136.45551
      19.14063	     116.82555	     134.86508	     116.82555	     134.86508
      19.41406	     120.04297	     138.34575	     120.04297	     138.34575
      19.68750	     118.26973	     136.52864	     118.26973	     136.52864
      19.96094	     117.20944	     132.72256	     117.20944	     132.72256
      20.23438	     117.96261	     134.19600	     117.96261	     134.19600
      20.50781	     117.87121	     135.25262	     117.87121	     135.25262
      20.78125	     118.27705	     136.54326	     118.27705	     136.54326
      21.05469	     117.84561	     134.33128	     117.84561	     134.33128
      21.32813	     115.74332	     132.41545	     115.74332	     132.41545
      21.60156	     119.58961	     137.12825	     119.58961	     137.12825
      21.87500	     117.84561	     135.70599	     117.84561	     135.70599
      22.14844	     117.78712	     134.42268	     117.78712	     134.42268
      22.42188	     118.72675	     136.49573	     118.72675	     136.49573
      22.69531	     115.86397	     132.44835	     115.86397	     132.44835
      22.96875	     118.77062	     135.76083	     118.77062	     135.76083
      23.24219	     119.66639	     138.90514	     119.66639	     138.90514
      23.51563	     121.02648	     137.74614	     121.02648	     137.74614
      23.78906	     118.43060	     135.91440	     118.43060	     135.91440
      24.06250	     117.36300	     134.66399	     117.36300	     134.66399
      24.33594	     118.06499	     134.71152	     118.06499	     134.71152
      24.60938	     117.37032	     135.28920	     117.37032	     135.28920
      24.88281	     118.08327	     135.23434	     118.08327	     135.23434
      25.15625	     118.59879	     135.57072	     118.59879	     135.57072
      25.42969	     118.56588	     136.55057	     118.56588	     136.55057
      25.70313	     116.94254	     133.70973	     116.94254	     133.70973
      25.97656	     117.61527	     134.64571	     117.61527	     134.64571
      26.25000	     116.99007	     135.25995	     116.99007	     135.25995
      26.52344	     119.79435	     137.93260	     119.79435	     137.93260
      26.79688	     118.25876	     135.96924	     118.25876	     135.96924
      27.07031	     118.45619	     134.82852	     118.45619	     134.82852
      27.34375	     117.89314	     135.78278	     117.89314	     135.78278
      27.61719	     119.03021	     136.04968	     119.03021	     136.04968
      27.89063	     117.09975	     135.30382	     117.09975	     135.30382
      28.16406	     118.17467	     135.95096	     118.17467	     135.95096
      28.43750	     118.57685	     136.11914	     118.57685	     136.11914
      28.71094	     116.90964	     134.53967	     116.90964	     134.53967
      28.98438	     118.44157	     136.09355	     118.44157	     136.09355
      29.25781	     120.40859	     137.61452	     120.40859	     137.61452
      29.53125	     117.28622	     132.81032	     117.28622	     132.81032
      29.80469	     117.86024	     134.86142	     117.86024	     134.86142
      30.07813	     116.77802	     135.60728	     116.77802	     135.60728
      30.35156	     117.50194	     134.43365	     117.50194	     134.43365
      30.62500	     117.66280	     134.77002	     117.66280	     134.77002
      30.89844	     116.39046	     134.58720	     116.39046	     134.58720
      31.17188	     117.13631	     136.02408	     117.13631	     136.02408
      31.44531	     118.23682	     135.43910	     118.23682	     135.43910
      31.71875	     118.38673	     136.48111	     118.38673	     136.48111
      31.99219	     117.90046	     134.45558	     117.90046	     134.45558
      32.26563	     118.54028	     137.01125	     118.54028	     137.01125
      32.53906	     117.43613	     134.14116	     117.43613	     134.14116
      32.81250	     115.52029	     132.66406	     115.52029	     132.66406
      33.08594	     119.10334	     137.07341	     119.10334	     137.07341
      33.35938	     118.03574	     135.63287	     118.03574	     135.63287
      33.63281	     116.13087	     133.60004	     116.13087	     133.60004
      33.90625	     118.79622	     137.20503	     118.79622	     137.20503
      34.17969	     117.49097	     132.78838	     117.49097	     132.78838
      34.45313	     119.30808	     136.62369	     119.30808	     136.62369
      34.72656	     117.53850	     136.07161	     117.53850	     136.07161
      35.00000	     117.71765	     135.03691	     117.71765	     135.03691
      35.27344	     116.21862	     134.19234	     116.21862	     134.19234
      35.54688	     115.48007	     132.96022	     115.48007	     132.96022
      35.82031	     118.06864	     137.25987	     118.06864	     137.25987
      36.09375	     118.94612	     138.47737	     118.94612	     138.47737
      36.36719	     118.04305	     135.40985	     118.04305	     135.40985
      36.64063	     117.53118	     136.07892	     117.53118	     136.07892
      36.91406	     117.87852	     137.12825	     117.87852	     137.12825
      37.18750	     118.54395	     135.69868	     118.54395	     135.69868
      37.46094	     117.48365	     135.88515	     117.48365	     135.88515
      37.73438	     117.49097	     135.60728	     117.49097	     135.60728
      38.00781	     117.41418	     135.05519	     117.41418	     135.05519
      38.28125	     115.03402	     132.00230	     115.03402	     132.00230
      38.55469	     118.39770	     136.16667	     118.39770	     136.16667
      38.82813	     118.36479	     135.42447	     118.36479	     135.42447
      39.10156	     116.32831	     133.75726	     116.32831	     133.75726
      39.37500	     118.49641	     134.26547	     118.49641	     134.26547
      39.64844	     119.13625	     139.37314	     119.13625	     139.37314
      39.92188	     118.79622	     137.40247	     118.79622	     137.40247
      40.19531	     118.62072	     136.86134	     118.62072	     136.86134
      40.46875	     117.02298	     134.50311	     117.02298	     134.50311
      40.74219	     117.89314	     135.73158	     117.89314	     135.73158
      41.01563	     117.53484	     134.11922	     117.53484	     134.11922
      41.28906	     118.25510	     136.81381	     118.25510	     136.81381
      41.56250	     117.03394	     136.28368	     117.03394	     136.28368
      41.83594	     116.07969	     134.15213	     116.07969	     134.15213
      42.10938	     118.51469	     136.01311	     118.51469	     136.01311
      42.38281	     120.14169	     136.61638	     120.14169	     136.61638
      42.65625	     119.04118	     135.91074	     119.04118	     135.91074
      42.92969	     116.29906	     133.93275	     116.29906	     133.93275
      43.20313	     118.21489	     136.13011	     118.21489	     136.13011
      43.47656	     120.10878	     137.27449	     120.10878	     137.27449
      43.75000	     118.52932	     133.74263	     118.52932	     133.74263
      44.02344	     118.09789	     137.44267	     118.09789	     137.44267
      44.29688	     118.93881	     135.56340	     118.93881	     135.56340
      44.57031	     118.56588	     136.59445	     118.56588	     136.59445
      44.84375	     119.44701	     136.29099	     119.44701	     136.29099
      45.11719	     117.32644	     134.65302	     117.32644	     134.65302
      45.39063	     118.18564	     134.53603	     118.18564	     134.53603
      45.66406	     119.14721	     136.00946	     119.14721	     136.00946
      45.93750	     118.84375	     135.87418	     118.84375	     135.87418
      46.21094	     115.45082	     132.47394	     115.45082	     132.47394
      46.48438	     118.16736	     136.33121	     118.16736	     136.33121
      46.75781	     119.26786	     136.51401	     119.26786	     136.51401
      47.03125	     118.54395	     137.07706	     118.54395	     137.07706
      47.30469	     119.61154	     136.75166	     119.61154	     136.75166
      47.57813	     119.12162	     136.30560	     119.12162	     136.30560
      47.85156	     120.77055	     138.67847	     120.77055	     138.67847
      48.12500	     117.24966	     135.81934	     117.24966	     135.81934
      48.39844	     117.15460	     133.68048	     117.15460	     133.68048
      48.67188	     119.12162	     134.96379	     119.12162	     134.96379
      48.94531	     120.11610	     137.62183	     120.11610	     137.62183
      49.21875	     117.79077	     136.29463	     117.79077	     136.29463
      49.49219	     117.56409	     133.88156	     117.56409	     133.88156
      49.76563	     118.21489	     136.32024	     118.21489	     136.32024
      50.03906	     119.13990	     137.24524	     119.13990	     137.24524
      50.31250	     118.44157	     136.82112	     118.44157	     136.82112
      50.58594	     118.07961	     134.62012	     118.07961	     134.62012
      50.85938	     116.50014	     133.65854	     116.50014	     133.65854
      51.13281	     117.81271	     135.51222	     117.81271	     135.51222
      51.40625	     119.66273	     136.19226	     119.66273	     136.19226
      51.67969	     115.62632	     133.78651	     115.62632	     133.78651
      51.95313	     117.06685	     134.70055	     117.06685	     134.70055
      52.22656	     116.81823	     134.34224	     116.81823	     134.34224
      52.50000	     117.86755	     133.46477	     117.86755	     133.46477
      52.77344	     119.99910	     139.28905	     119.99910	     139.28905
      53.04688	     116.54402	     133.09915	     116.54402	     133.09915
      53.32031	     120.11975	     136.79919	     120.11975	     136.79919
      53.59375	     118.48910	     134.83217	     118.48910	     134.83217
      53.86719	     117.46537	     134.92723	     117.46537	     134.92723
      54.14063	     116.33196	     135.49028	     116.33196	     135.49028
      54.41406	     115.92612	     133.79016	     115.92612	     133.79016
      54.68750	     116.61349	     134.19966	     116.61349	     134.19966
      54.96094	     117.04491	     134.99670	     117.04491	     134.99670
      55.23438	     117.07782	     133.85963	     117.07782	     133.85963
      55.50781	     116.56961	     134.30203	     116.56961	     134.30203
      55.78125	     118.11252	     136.21054	     118.11252	     136.21054
      56.05469	     120.54021	     136.94910	     120.54021	     136.94910
      56.32813	     117.35204	     135.42813	     117.35204	     135.42813
      56.60156	     118.29533	     135.41350	     118.29533	     135.41350
      56.87500	     118.73041	     135.38060	     118.73041	     135.38060
      57.14844	     119.92963	     138.43350	     119.92963	     138.43350
      57.42188	     118.48910	     137.30008	     118.48910	     137.30008
      57.69531	     120.39397	     136.66026	     120.39397	     136.66026
      57.96875	     119.67735	     137.90335	     119.67735	     137.90335
      58.24219	     116.29540	     133.24539	     116.29540	     133.24539
      58.51563	     116.01022	     133.97298	     116.01022	     133.97298
      58.78906	     115.34480	     132.46298	     115.34480	     132.46298
      59.06250	     117.73593	     135.95096	     117.73593	     135.95096
      59.33594	     118.90224	     137.10265	     118.90224	     137.10265
      59.60938	     116.21497	     133.38068	     116.21497	     133.38068
      59.88281	     119.25690	     135.72794	     119.25690	     135.72794
      60.15625	     116.83286	     134.88701	     116.83286	     134.88701
      60.42969	     121.08864	     137.58527	     121.08864	     137.58527
      60.70313	     116.94985	     133.12474	     116.94985	     133.12474
      60.97656	     117.51290	     134.92723	     117.51290	     134.92723
      61.25000	     119.77607	     135.27092	     119.77607	     135.27092
      61.52344	     117.68840	     135.26360	     117.68840	     135.26360
      61.79688	     116.33562	     133.81575	     116.33562	     133.81575
      62.07031	     118.59879	     135.01498	     118.59879	     135.01498
      62.34375	     120.26600	     138.03864	     120.26600	     138.03864
      62.61719	     119.08871	     138.30919	     119.08871	     138.30919
      62.89063	     117.50559	     135.72427	     117.50559	     135.72427
      63.16406	     116.99373	     135.29651	     116.99373	     135.29651
      63.43750	     118.20392	     136.62369	     118.20392	     136.62369
      63.71094	     117.79443	     134.32396	     117.79443	     134.32396
      63.98438	     114.92799	     135.13564	     114.92799	     135.13564
      64.25781	     116.92426	     133.77188	     116.92426	     133.77188
      64.53125	     115.92978	     133.48305	     115.92978	     133.48305
      64.80469	     117.69571	     134.25450	     117.69571	     134.25450
      65.07813	     117.49462	     136.91985	     117.49462	     136.91985
      65.35156	     115.51663	     133.92909	     115.51663	     133.92909
      65.62500	     116.54768	     133.87791	     116.54768	     133.87791
      65.89844	     117.34837	     134.72615	     117.34837	     134.72615
      66.17188	     117.27891	     133.61467	     117.27891	     133.61467
      66.44531	     116.39412	     136.23979	     116.39412	     136.23979
      66.71875	     119.03021	     135.89246	     119.03021	     135.89246
      66.99219	     118.07595	     135.41716	     118.07595	     135.41716
      67.26563	     118.53663	     136.44820	     118.53663	     136.44820
      67.53906	     119.05946	     137.55237	     119.05946	     137.55237
      67.81250	     117.62259	     137.08072	     117.62259	     137.08072
      68.08594	     116.41971	     135.69868	     116.41971	     135.69868
      68.35938	     117.06319	     134.24353	     117.06319	     134.24353
      68.63281	     118.36479	     136.34949	     118.36479	     136.34949
      68.90625	     118.47082	     136.63101	     118.47082	     136.63101
      69.17969	     118.30994	     136.58348	     118.30994	     136.58348
      69.45313	     116.93157	     134.10094	     116.93157	     134.10094

Monitor Diode	1627238.93
"StandardDeviation"
  3.12500E-006	  2.09754E-002
  6.25000E-006	  2.09755E-002
  9.37500E-006	  2.09754E-002
  1.25000E-005	  2.09753E-002
  1.56250E-005	  2.09752E-002
  1.87500E-005	  2.09753E-002
  2.18750E-005	  2.09755E-002
  2.50000E-005	  2.09753E-002
  2.81250E-005	  2.08737E-002
  3.12500E-005	  2.09754E-002
  3.43750E-005	  2.08769E-002
  3.75000E-005	  2.07839E-002
  4.06250E-005	  2.07251E-002
  4.37500E-005	  2.07726E-002
  4.68750E-005	  2.09751E-002
  5.00000E-005	  1.47351E-002
  5.62500E-005	  1.47325E-002
  6.25000E-005	  1.47502E-002
  6.87500E-005	  1.46495E-002
  7.50000E-005	  1.47564E-002
  8.12500E-005	  1.46574E-002
  8.75000E-005	  1.47474E-002
  9.37500E-005	  1.45746E-002
  1.00000E-004	  1.03823E-002
  1.12500E-004	  1.04419E-002
  1.25000E-004	  1.04088E-002
  1.37500E-004	  1.03797E-002
  1.50000E-004	  1.03804E-002
  1.62500E-004	  1.03475E-002
  1.75000E-004	  1.03879E-002
  1.87500E-004	  1.03612E-002
  2.00000E-004	  7.35460E-003
  2.25000E-004	  7.35367E-003
  2.50000E-004	  7.35250E-003
  2.75000E-004	  7.35308E-003
  3.00000E-004	  7.35710E-003
  3.25000E-004	  7.39836E-003
  3.50000E-004	  7.35147E-003
  3.75000E-004	  7.34772E-003
  4.00000E-004	  5.21295E-003
  4.50000E-004	  5.21789E-003
  5.00000E-004	  5.21991E-003
  5.50000E-004	  5.22712E-003
  6.00000E-004	  5.22320E-003
  6.50000E-004	  5.22076E-003
  7.00000E-004	  5.21095E-003
  7.50000E-004	  5.21729E-003
  8.00000E-004	  3.71389E-003
  9.00000E-004	  3.71023E-003
  1.00000E-003	  3.71110E-003
  1.10000E-003	  3.71030E-003
  1.20000E-003	  3.70700E-003
  1.30000E-003	  3.71253E-003
  1.40000E-003	  3.70504E-003
  1.50000E-003	  3.71032E-003
  1.60000E-003	  2.65337E-003
  1.80000E-003	  2.65231E-003
  2.00000E-003	  2.64819E-003
  2.20000E-003	  2.64942E-003
  2.40000E-003	  2.64715E-003
  2.60000E-003	  2.64433E-003
  2.80000E-003	  2.64532E-003
  3.00000E-003	  2.64290E-003
  3.20000E-003	  1.91583E-003
  3.60000E-003	  1.91297E-003
  4.00000E-003	  1.90941E-003
  4.40000E-003	  1.90819E-003
  4.80000E-003	  1.90564E-003
  5.20000E-003	  1.90355E-003
  5.60000E-003	  1.90136E-003
  6.00000E-003	  1.89720E-003
  6.40000E-003	  1.40370E-003
  7.20000E-003	  1.39954E-003
  8.00000E-003	  1.39615E-003
  8.80000E-003	  1.39243E-003
  9.60000E-003	  1.38858E-003
  1.04000E-002	  1.38569E-003
  1.12000E-002	  1.38218E-003
  1.20000E-002	  1.37886E-003
  1.28000E-002	  1.05170E-003
  1.44000E-002	  1.04558E-003
  1.60000E-002	  1.03989E-003
  1.76000E-002	  1.03512E-003
  1.92000E-002	  1.02961E-003
  2.08000E-002	  1.02478E-003
  2.24000E-002	  1.01968E-003
  2.40000E-002	  1.01513E-003
  2.56000E-002	  8.04414E-004
  2.88000E-002	  7.95374E-004
  3.20000E-002	  7.87658E-004
  3.52000E-002	  7.80488E-004
  3.84000E-002	  7.73493E-004
  4.16000E-002	  7.67014E-004
  4.48000E-002	  7.61269E-004
  4.80000E-002	  7.55596E-004
  5.12000E-002	  6.22178E-004
  5.76000E-002	  6.11810E-004
  6.40000E-002	  6.03370E-004
  7.04000E-002	  5.96096E-004
  7.68000E-002	  5.89560E-004
  8.32000E-002	  5.83749E-004
  8.96000E-002	  5.79017E-004
  9.60000E-002	  5.74444E-004
  1.02400E-001	  4.89145E-004
  1.15200E-001	  4.82208E-004
  1.28000E-001	  4.76840E-004
  1.40800E-001	  4.72932E-004
  1.53600E-001	  4.69766E-004
  1.66400E-001	  4.67219E-004
  1.79200E-001	  4.65511E-004
  1.92000E-001	  4.64368E-004
  2.04800E-001	  4.04842E-004
  2.30400E-001	  4.03680E-004
  2.56000E-001	  4.02858E-004
  2.81600E-001	  4.02622E-004
  3.07200E-001	  4.02039E-004
  3.32800E-001	  4.01778E-004
  3.58400E-001	  4.00738E-004
  3.84000E-001	  4.00738E-004
  4.09600E-001	  3.50835E-004
  4.60800E-001	  3.50835E-004
  5.12000E-001	  3.50835E-004
  5.63200E-001	  3.50835E-004
  6.14400E-001	  3.50835E-004
  6.65600E-001	  3.50835E-004
  7.16800E-001	  3.50835E-004
  7.68000E-001	  3.50835E-004
  8.19200E-001	  3.08347E-004
  9.21600E-001	  3.08347E-004
  1.02400E+000	  3.08347E-004
  1.12640E+000	  3.08347E-004
  1.22880E+000	  3.08347E-004
  1.33120E+000	  3.08347E-004
  1.43360E+000	  3.08347E-004
  1.53600E+000	  3.08347E-004
  1.63840E+000	  2.52902E-004
  1.84320E+000	  2.52902E-004
  2.04800E+000	  2.52902E-004
  2.25280E+000	  2.52902E-004
  2.45760E+000	  2.52902E-004
  2.66240E+000	  2.52902E-004
  2.86720E+000	  2.52902E-004
  3.07200E+000	  2.52902E-004
  3.27680E+000	  1.96146E-004
  3.68640E+000	  1.96146E-004
  4.09600E+000	  1.96146E-004
  4.50560E+000	  1.96146E-004
  4.91520E+000	  1.96146E-004
  5.32480E+000	  1.96146E-004
  5.73440E+000	  1.96146E-004
  6.14400E+000	  1.96146E-004
  6.55360E+000	  1.46156E-004
  7.37280E+000	  1.46156E-004
  8.19200E+000	  1.46156E-004
  9.01120E+000	  1.46156E-004
  9.83040E+000	  1.46156E-004
  1.06496E+001	  1.46156E-004
  1.14688E+001	  1.46156E-004
  1.22880E+001	  1.46156E-004
  1.31072E+001	  1.06089E-004
  1.47456E+001	  1.06089E-004
  1.63840E+001	  1.06089E-004
  1.80224E+001	  1.06089E-004
  1.96608E+001	  1.06089E-004
  2.12992E+001	  1.06089E-004
  2.29376E+001	  1.06089E-004
  2.45760E+001	  1.06089E-004
  2.62144E+001	  7.59868E-005
  2.94912E+001	  7.59868E-005
  3.27680E+001	  7.59868E-005
  3.60448E+001	  7.59868E-005
  3.93216E+001	  7.59868E-005
  4.25984E+001	  7.59868E-005
  4.58752E+001	  7.59868E-005
  4.91520E+001	  7.59868E-005
  5.24288E+001	  5.40738E-005
  5.89824E+001	  5.40738E-005
  6.55360E+001	  5.40738E-005
  7.20896E+001	  5.40738E-005
  7.86432E+001	  5.40738E-005
  8.51968E+001	  5.40738E-005
  9.17504E+001	  5.40738E-005
  9.83040E+001	  5.40738E-005
  1.04858E+002	  3.83572E-005
  1.17965E+002	  3.83572E-005
  1.31072E+002	  3.83572E-005
  1.44179E+002	  3.83572E-005
  1.57286E+002	  3.83572E-005
  1.70394E+002	  3.83572E-005
  1.83501E+002	  3.83572E-005
  1.96608E+002	  3.83572E-005
  2.09715E+002	  2.71654E-005
  2.35930E+002	  2.71654E-005
  2.62144E+002	  2.71654E-005
  2.88358E+002	  2.71654E-005
  3.14573E+002	  2.71654E-005
  3.40787E+002	  2.71654E-005
  3.67002E+002	  2.71654E-005
  3.93216E+002	  2.71654E-005
  4.19430E+002	  1.92239E-005
  4.71859E+002	  1.92239E-005
  5.24288E+002	  1.92239E-005
  5.76717E+002	  1.92239E-005
  6.29146E+002	  1.92239E-005
  6.81574E+002	  1.92239E-005
  7.34003E+002	  1.92239E-005
  7.86432E+002	  1.92239E-005
  8.38861E+002	  1.35985E-005
  9.43718E+002	  1.35985E-005
  1.04858E+003	  1.35985E-005
  1.15343E+003	  1.35985E-005
  1.25829E+003	  1.35985E-005
  1.36315E+003	  1.35985E-005
  1.46801E+003	  1.35985E-005
  1.57286E+003	  1.35985E-005
  1.67772E+003	  9.61723E-006
  1.88744E+003	  9.61723E-006
  2.09715E+003	  9.61723E-006
  2.30687E+003	  9.61723E-006
  2.51658E+003	  9.61723E-006
  2.72630E+003	  9.61723E-006
  2.93601E+003	  9.61723E-006
  3.14573E+003	  9.61723E-006
  3.35544E+003	  6.80072E-006
  3.77487E+003	  6.80072E-006
  4.19430E+003	  6.80072E-006
  4.61373E+003	  6.80072E-006
  5.03317E+003	  6.80072E-006
  5.45260E+003	  6.80072E-006
  5.87203E+003	  6.80072E-006
  6.29146E+003	  6.80072E-006
  6.71089E+003	  4.80855E-006
  7.54975E+003	  4.80855E-006
  8.38861E+003	  4.80855E-006
  9.22747E+003	  4.80855E-006
  1.00663E+004	  4.80855E-006
  1.09052E+004	  4.80855E-006
  1.17441E+004	  4.80855E-006
