ALV-7004 or ALV-7004/FAST Data
Date :	"3/27/2010"
Time :	"10:55:42 AM"
Samplename : 	"BSA 1 g/l in YCl3 8.3mM"
SampMemo(0) : 	""
SampMemo(1) : 	""
SampMemo(2) : 	""
SampMemo(3) : 	""
SampMemo(4) : 	""
SampMemo(5) : 	""
SampMemo(6) : 	""
SampMemo(7) : 	""
SampMemo(8) : 	""
SampMemo(9) : 	""
Temperature [K] :	     295.67213
Viscosity [cp]  :	       0.94286
Refractive Index:	       1.33200
Wavelength [nm] :	     632.80000
Angle [°]       :	      80.00000
Duration [s]    :	        70
Runs            :	         1
Mode            :	"C-CH0/1+1/0"
MeanCR0 [kHz]   :	      56.65185
MeanCR1 [kHz]   :	      68.33362
MeanCR2 [kHz]   :	       0.00000
MeanCR3 [kHz]   :	       0.00000

"Correlation"
  3.12500E-006	  9.17883E-001	  9.65541E-001	 -3.00000E+000	 -3.00000E+000
  6.25000E-006	  8.26228E-001	  7.61975E-001	 -3.00000E+000	 -3.00000E+000
  9.37500E-006	  9.37147E-001	  9.79278E-001	 -3.00000E+000	 -3.00000E+000
  1.25000E-005	  9.08209E-001	  8.28528E-001	 -3.00000E+000	 -3.00000E+000
  1.56250E-005	  9.44324E-001	  9.35512E-001	 -3.00000E+000	 -3.00000E+000
  1.87500E-005	  9.57619E-001	  1.04606E+000	 -3.00000E+000	 -3.00000E+000
  2.18750E-005	  8.69569E-001	  8.36915E-001	 -3.00000E+000	 -3.00000E+000
  2.50000E-005	  9.95471E-001	  1.07801E+000	 -3.00000E+000	 -3.00000E+000
  2.81250E-005	  9.06349E-001	  9.49513E-001	 -3.00000E+000	 -3.00000E+000
  3.12500E-005	  9.58689E-001	  9.14082E-001	 -3.00000E+000	 -3.00000E+000
  3.43750E-005	  9.31804E-001	  9.39025E-001	 -3.00000E+000	 -2.99902E+000
  3.75000E-005	  9.10145E-001	  8.91799E-001	 -3.00000E+000	 -3.00000E+000
  4.06250E-005	  9.71048E-001	  1.02195E+000	 -3.00000E+000	  2.15860E+000
  4.37500E-005	  9.85886E-001	  1.00907E+000	 -3.00000E+000	  2.81300E+000
  4.68750E-005	  9.88760E-001	  9.18814E-001	 -3.00000E+000	 -4.93028E-001
  5.00000E-005	  1.00129E+000	  9.75946E-001	 -3.00000E+000	  3.73735E+000
  5.62500E-005	  9.66660E-001	  9.51443E-001	 -3.00000E+000	  1.98278E+000
  6.25000E-005	  9.65751E-001	  9.57437E-001	 -3.00000E+000	  1.84506E+000
  6.87500E-005	  9.46554E-001	  9.59265E-001	 -2.89039E+000	  2.00544E+000
  7.50000E-005	  9.41852E-001	  8.53389E-001	  2.78189E+000	  1.43531E+000
  8.12500E-005	  9.59743E-001	  9.79873E-001	  1.40598E+000	  1.50068E+000
  8.75000E-005	  9.20532E-001	  9.51865E-001	  1.31911E+000	  1.35566E+000
  9.37500E-005	  9.26012E-001	  8.99937E-001	  1.19720E+000	  1.41167E+000
  1.00000E-004	  9.41763E-001	  9.23351E-001	  1.10653E+000	  1.29953E+000
  1.12500E-004	  9.17588E-001	  9.05315E-001	  1.12486E+000	  1.23943E+000
  1.25000E-004	  9.16553E-001	  8.97094E-001	  9.91668E-001	  1.19411E+000
  1.37500E-004	  9.35873E-001	  9.39873E-001	  9.16900E-001	  1.17312E+000
  1.50000E-004	  9.15044E-001	  9.34961E-001	  1.05572E+000	  1.16594E+000
  1.62500E-004	  9.33907E-001	  9.41962E-001	  9.50308E-001	  1.05479E+000
  1.75000E-004	  9.07290E-001	  9.25004E-001	  9.48704E-001	  1.04759E+000
  1.87500E-004	  8.99086E-001	  9.10537E-001	  1.02941E+000	  1.09120E+000
  2.00000E-004	  9.38307E-001	  9.54604E-001	  9.97984E-001	  1.06827E+000
  2.25000E-004	  9.37075E-001	  9.15310E-001	  9.31044E-001	  1.09700E+000
  2.50000E-004	  9.46200E-001	  9.41183E-001	  8.60655E-001	  1.02142E+000
  2.75000E-004	  9.48570E-001	  9.25497E-001	  9.52021E-001	  9.76554E-001
  3.00000E-004	  9.22900E-001	  9.24089E-001	  9.09195E-001	  9.99511E-001
  3.25000E-004	  9.37522E-001	  9.39954E-001	  9.31752E-001	  9.99626E-001
  3.50000E-004	  9.12744E-001	  9.24278E-001	  9.52415E-001	  1.01567E+000
  3.75000E-004	  8.99109E-001	  8.73548E-001	  8.88139E-001	  9.92779E-001
  4.00000E-004	  9.23495E-001	  9.27655E-001	  9.43745E-001	  9.92473E-001
  4.50000E-004	  9.28360E-001	  9.33528E-001	  9.45710E-001	  1.02938E+000
  5.00000E-004	  9.28149E-001	  9.18125E-001	  9.47076E-001	  9.83529E-001
  5.50000E-004	  9.15280E-001	  9.03354E-001	  9.33601E-001	  9.86348E-001
  6.00000E-004	  9.12309E-001	  9.10383E-001	  9.13449E-001	  9.69903E-001
  6.50000E-004	  9.16145E-001	  9.27424E-001	  9.39966E-001	  9.43508E-001
  7.00000E-004	  9.10477E-001	  9.08372E-001	  8.87263E-001	  9.72447E-001
  7.50000E-004	  9.11458E-001	  9.11132E-001	  8.74771E-001	  9.48040E-001
  8.00000E-004	  9.06214E-001	  9.20673E-001	  9.08868E-001	  9.58134E-001
  9.00000E-004	  9.16934E-001	  9.12816E-001	  8.90270E-001	  9.76244E-001
  1.00000E-003	  9.04642E-001	  8.91386E-001	  8.89019E-001	  9.49315E-001
  1.10000E-003	  9.10910E-001	  9.11462E-001	  8.89704E-001	  9.41775E-001
  1.20000E-003	  9.05078E-001	  8.93712E-001	  9.11276E-001	  9.38104E-001
  1.30000E-003	  8.95102E-001	  8.99985E-001	  8.72831E-001	  9.09858E-001
  1.40000E-003	  8.90133E-001	  8.92514E-001	  8.69665E-001	  9.25719E-001
  1.50000E-003	  8.79295E-001	  8.79319E-001	  8.70297E-001	  9.30704E-001
  1.60000E-003	  8.88121E-001	  8.89987E-001	  8.76740E-001	  9.29270E-001
  1.80000E-003	  8.74918E-001	  8.67272E-001	  8.71360E-001	  9.11035E-001
  2.00000E-003	  8.63341E-001	  8.52456E-001	  8.80563E-001	  9.07527E-001
  2.20000E-003	  8.58059E-001	  8.49276E-001	  8.53671E-001	  8.91339E-001
  2.40000E-003	  8.52491E-001	  8.58141E-001	  8.44001E-001	  8.94195E-001
  2.60000E-003	  8.53459E-001	  8.44575E-001	  8.32008E-001	  8.83581E-001
  2.80000E-003	  8.45041E-001	  8.42124E-001	  8.44591E-001	  8.52131E-001
  3.00000E-003	  8.36065E-001	  8.32295E-001	  8.41776E-001	  8.71958E-001
  3.20000E-003	  8.33747E-001	  8.32737E-001	  8.34759E-001	  8.66194E-001
  3.60000E-003	  8.26627E-001	  8.26456E-001	  8.23766E-001	  8.47704E-001
  4.00000E-003	  8.12263E-001	  8.12390E-001	  8.08098E-001	  8.41032E-001
  4.40000E-003	  8.02386E-001	  8.06184E-001	  8.01803E-001	  8.32429E-001
  4.80000E-003	  7.89783E-001	  7.86961E-001	  7.93349E-001	  8.10101E-001
  5.20000E-003	  7.83287E-001	  7.81939E-001	  7.89105E-001	  8.05821E-001
  5.60000E-003	  7.74490E-001	  7.73089E-001	  7.72253E-001	  7.90841E-001
  6.00000E-003	  7.62667E-001	  7.64255E-001	  7.54659E-001	  7.90101E-001
  6.40000E-003	  7.50103E-001	  7.51710E-001	  7.52308E-001	  7.75907E-001
  7.20000E-003	  7.27811E-001	  7.30976E-001	  7.45003E-001	  7.49738E-001
  8.00000E-003	  7.09744E-001	  7.07435E-001	  7.12915E-001	  7.31799E-001
  8.80000E-003	  6.96514E-001	  6.99150E-001	  7.01359E-001	  7.10764E-001
  9.60000E-003	  6.75969E-001	  6.74629E-001	  6.77776E-001	  6.94457E-001
  1.04000E-002	  6.61959E-001	  6.65181E-001	  6.57476E-001	  6.74948E-001
  1.12000E-002	  6.43780E-001	  6.45075E-001	  6.46246E-001	  6.55532E-001
  1.20000E-002	  6.28717E-001	  6.25796E-001	  6.28209E-001	  6.39254E-001
  1.28000E-002	  6.08147E-001	  6.05770E-001	  6.15114E-001	  6.20970E-001
  1.44000E-002	  5.79112E-001	  5.78664E-001	  5.85350E-001	  5.88685E-001
  1.60000E-002	  5.47367E-001	  5.48233E-001	  5.59070E-001	  5.61230E-001
  1.76000E-002	  5.21145E-001	  5.18361E-001	  5.30813E-001	  5.32504E-001
  1.92000E-002	  4.91190E-001	  4.91448E-001	  4.94079E-001	  4.99719E-001
  2.08000E-002	  4.58989E-001	  4.56649E-001	  4.72271E-001	  4.79179E-001
  2.24000E-002	  4.42307E-001	  4.42396E-001	  4.48895E-001	  4.51812E-001
  2.40000E-002	  4.19338E-001	  4.16895E-001	  4.25012E-001	  4.30748E-001
  2.56000E-002	  3.97739E-001	  3.95927E-001	  4.04597E-001	  4.06460E-001
  2.88000E-002	  3.56277E-001	  3.54880E-001	  3.61795E-001	  3.67158E-001
  3.20000E-002	  3.23125E-001	  3.24159E-001	  3.25883E-001	  3.29948E-001
  3.52000E-002	  2.89589E-001	  2.89192E-001	  2.98505E-001	  2.94449E-001
  3.84000E-002	  2.57811E-001	  2.58597E-001	  2.63136E-001	  2.66902E-001
  4.16000E-002	  2.32165E-001	  2.32567E-001	  2.39305E-001	  2.39830E-001
  4.48000E-002	  2.10404E-001	  2.11827E-001	  2.10550E-001	  2.16846E-001
  4.80000E-002	  1.90091E-001	  1.87802E-001	  1.92628E-001	  1.96047E-001
  5.12000E-002	  1.70915E-001	  1.69227E-001	  1.76578E-001	  1.76297E-001
  5.76000E-002	  1.41642E-001	  1.40900E-001	  1.43957E-001	  1.42749E-001
  6.40000E-002	  1.13944E-001	  1.11608E-001	  1.17646E-001	  1.17698E-001
  7.04000E-002	  9.11721E-002	  9.04238E-002	  9.24961E-002	  9.41029E-002
  7.68000E-002	  7.39259E-002	  7.40368E-002	  7.74658E-002	  7.61325E-002
  8.32000E-002	  6.14016E-002	  6.06923E-002	  6.18050E-002	  6.11728E-002
  8.96000E-002	  5.11300E-002	  4.94396E-002	  5.17829E-002	  4.92199E-002
  9.60000E-002	  4.04537E-002	  4.05398E-002	  4.34541E-002	  4.05652E-002
  1.02400E-001	  3.30626E-002	  3.22883E-002	  3.64261E-002	  3.34444E-002
  1.15200E-001	  2.23404E-002	  2.04581E-002	  2.32991E-002	  2.37131E-002
  1.28000E-001	  1.66047E-002	  1.64080E-002	  1.56417E-002	  1.67328E-002
  1.40800E-001	  9.68184E-003	  8.24382E-003	  1.23424E-002	  1.11490E-002
  1.53600E-001	  6.96492E-003	  6.17879E-003	  6.64659E-003	  7.92582E-003
  1.66400E-001	  4.85478E-003	  5.74976E-003	  7.03500E-003	  3.93090E-003
  1.79200E-001	  3.48453E-003	  3.75449E-003	  4.55139E-003	  1.78317E-003
  1.92000E-001	  2.33401E-003	  2.14113E-003	  4.10217E-003	  1.15999E-004
  2.04800E-001	  1.78588E-003	  1.62837E-003	  3.08284E-003	 -1.78248E-003
  2.30400E-001	  5.90233E-004	  9.96275E-004	  9.25640E-004	 -1.30970E-004
  2.56000E-001	  3.05880E-004	  4.14511E-004	  8.05450E-004	 -8.15502E-004
  2.81600E-001	 -8.75247E-004	 -8.83144E-004	 -9.40015E-004	 -5.49735E-004
  3.07200E-001	 -6.88908E-004	 -9.71262E-004	  1.03765E-004	  6.73817E-005
  3.32800E-001	  4.67640E-004	  1.05503E-004	  5.66574E-004	 -1.66044E-003
  3.58400E-001	 -3.45894E-004	 -1.10884E-004	  2.09484E-003	 -1.68083E-003
  3.84000E-001	 -5.29053E-004	 -8.55619E-004	  1.64442E-003	 -1.06581E-003
  4.09600E-001	 -2.83338E-004	 -6.64649E-004	  3.81206E-004	 -1.42574E-003
  4.60800E-001	 -1.22947E-004	 -7.44776E-004	  1.77526E-004	  2.47181E-004
  5.12000E-001	 -2.81656E-004	 -6.50411E-004	 -1.38129E-005	 -2.31483E-004
  5.63200E-001	  1.94524E-005	  5.76990E-004	 -3.34851E-004	 -7.95053E-004
  6.14400E-001	  1.01969E-004	  5.40864E-004	  3.60522E-004	  1.00642E-003
  6.65600E-001	  1.61182E-005	  2.18706E-004	 -4.78994E-004	  1.34356E-003
  7.16800E-001	  2.71258E-004	  9.29213E-005	  9.22000E-005	 -1.29985E-004
  7.68000E-001	 -3.79912E-004	  1.80326E-004	 -7.48218E-004	  4.42026E-004
  8.19200E-001	 -1.99294E-004	 -4.12210E-004	  1.59261E-004	  5.53413E-004
  9.21600E-001	 -1.55946E-004	 -6.88745E-004	 -5.05967E-004	  1.27005E-004
  1.02400E+000	 -3.61865E-004	 -1.10974E-003	 -1.13823E-003	 -7.73980E-004
  1.12640E+000	 -2.21410E-005	  1.16583E-004	  5.92040E-004	  9.40833E-004
  1.22880E+000	  2.07555E-004	 -2.57310E-005	  8.55593E-005	  4.85504E-004
  1.33120E+000	  7.45272E-004	  9.87827E-004	  6.54186E-004	 -5.40596E-004
  1.43360E+000	 -4.75286E-005	  5.25277E-004	 -9.07868E-005	 -8.03220E-004
  1.53600E+000	  5.06318E-004	  1.06969E-003	  1.07128E-004	  2.39726E-004
  1.63840E+000	  4.76477E-004	  6.64694E-004	  6.59447E-004	  3.72886E-004
  1.84320E+000	  1.61411E-004	  5.44961E-006	 -2.18417E-004	 -1.46234E-004
  2.04800E+000	 -1.46175E-004	 -9.73357E-005	  4.69725E-004	 -3.27294E-004
  2.25280E+000	 -4.58986E-005	  7.40155E-005	  2.87897E-006	  2.66462E-004
  2.45760E+000	  4.28109E-004	  5.44293E-004	  3.35581E-005	  5.78853E-004
  2.66240E+000	 -3.91322E-005	 -4.36583E-004	  3.02484E-004	 -3.46125E-004
  2.86720E+000	  2.18042E-004	  8.05704E-004	  4.18098E-005	  3.98362E-004
  3.07200E+000	  4.35667E-004	  6.38001E-004	  1.83528E-004	  2.10897E-004
  3.27680E+000	  2.17315E-004	  2.70346E-004	  1.28338E-004	  4.47703E-004
  3.68640E+000	  4.34791E-004	  3.42701E-004	  8.58206E-004	 -2.94064E-004
  4.09600E+000	  7.11989E-005	  5.49995E-004	  2.33217E-004	  3.69568E-004
  4.50560E+000	  5.75153E-005	  2.43919E-004	  4.50440E-004	  1.51953E-004
  4.91520E+000	  4.41916E-004	  6.49128E-004	  6.95904E-004	  7.08576E-005
  5.32480E+000	  1.59317E-004	  1.31497E-004	  2.89029E-004	 -4.68586E-005
  5.73440E+000	 -2.74819E-004	 -1.79149E-004	 -5.46062E-004	 -3.45249E-004
  6.14400E+000	 -3.06859E-004	 -1.96265E-004	 -8.27240E-005	 -2.14686E-004
  6.55360E+000	 -1.30071E-004	 -2.11883E-004	  1.47944E-004	 -2.09531E-004
  7.37280E+000	  1.05226E-004	  5.10959E-004	  3.52483E-004	 -4.55280E-005
  8.19200E+000	  1.94403E-004	  1.42994E-004	 -2.55320E-004	  2.89706E-004
  9.01120E+000	  1.89556E-004	  4.14790E-005	  1.95049E-004	  1.95380E-005
  9.83040E+000	  7.42643E-005	  9.14043E-005	 -4.53301E-006	 -1.70169E-004
  1.06496E+001	 -5.34080E-005	 -1.89125E-004	  5.38008E-005	  3.29295E-005
  1.14688E+001	 -9.90505E-005	 -2.79180E-004	 -8.25213E-005	 -3.43945E-004
  1.22880E+001	 -1.28886E-004	 -3.16736E-004	 -3.43517E-004	 -3.47040E-004
  1.31072E+001	  2.04990E-004	  1.88588E-004	 -1.42554E-004	  9.49885E-005
  1.47456E+001	 -1.18153E-004	 -9.28585E-005	 -3.46785E-004	  1.04809E-004
  1.63840E+001	  6.18962E-005	 -2.60018E-005	  2.26740E-004	  2.67879E-005
  1.80224E+001	 -1.33805E-004	 -6.46629E-005	 -3.08378E-004	 -1.71449E-005
  1.96608E+001	  1.28913E-004	  1.92014E-004	 -1.79247E-005	  2.74152E-004
  2.12992E+001	  1.12696E-004	  8.87951E-005	 -1.25483E-004	  1.25083E-004
  2.29376E+001	  1.87024E-005	 -4.81507E-006	 -1.09888E-004	 -5.84098E-005
  2.45760E+001	  4.59098E-005	  3.79855E-005	  1.47603E-004	 -6.28948E-005
  2.62144E+001	  2.05427E-004	  2.67315E-004	  1.51436E-004	  1.68063E-004
  2.94912E+001	 -1.18251E-004	 -6.87695E-005	  4.35800E-005	 -8.89768E-005
  3.27680E+001	  2.01058E-004	  2.24229E-004	  8.76797E-007	  2.74261E-004
  3.60448E+001	 -1.67240E-005	  4.34397E-006	  3.62057E-005	 -3.24112E-005
  3.93216E+001	  1.05194E-004	  7.31203E-005	  1.12755E-004	 -1.41602E-004
  4.25984E+001	  1.64394E-004	  9.25331E-005	  1.98816E-004	  2.71122E-004
  4.58752E+001	 -1.92959E-004	 -2.73668E-004	 -1.20216E-004	 -1.64447E-004
  4.91520E+001	  9.78071E-006	 -7.12825E-005	  1.87755E-004	  3.41899E-007
  5.24288E+001	 -6.81354E-005	 -1.33385E-004	 -1.51424E-004	 -8.45471E-005
  5.89824E+001	 -5.11674E-005	  4.07681E-006	 -1.00501E-004	 -2.03267E-005
  6.55360E+001	 -8.17054E-005	 -1.63161E-004	 -5.47785E-005	 -2.74943E-005
  7.20896E+001	  1.00158E-004	  6.70731E-005	  1.37631E-004	  7.42950E-005
  7.86432E+001	 -5.77341E-005	 -4.54421E-005	 -3.30244E-005	 -1.32540E-004
  8.51968E+001	  1.09885E-005	 -7.68572E-006	 -3.10209E-005	  3.36788E-005
  9.17504E+001	 -1.36205E-005	 -1.10879E-004	 -1.14666E-004	 -6.21723E-005
  9.83040E+001	  9.21371E-005	  1.92485E-004	  1.91575E-004	 -4.41542E-005
  1.04858E+002	  2.45137E-005	  8.50836E-006	  1.32403E-005	  3.53545E-005
  1.17965E+002	  6.01558E-005	  2.42210E-005	 -1.71263E-005	  1.05240E-004
  1.31072E+002	  5.37386E-005	  3.96629E-005	  8.56186E-007	  1.05714E-004
  1.44179E+002	  2.69934E-005	  1.08425E-005	  2.78180E-006	 -4.27677E-005
  1.57286E+002	  3.79053E-005	 -4.25630E-005	  6.98269E-005	  1.90600E-005
  1.70394E+002	 -8.88459E-005	 -1.30772E-004	 -6.11811E-005	 -1.01911E-004
  1.83501E+002	 -1.21153E-005	  2.76164E-005	 -1.33847E-005	 -1.04961E-005
  1.96608E+002	  3.58345E-005	  3.56331E-005	 -3.50264E-005	  6.66277E-005
  2.09715E+002	  6.95515E-006	  3.17249E-005	 -2.25036E-007	  3.07093E-006
  2.35930E+002	  1.79661E-005	 -9.62140E-006	 -9.12265E-006	  3.63698E-005
  2.62144E+002	 -1.38054E-005	 -2.27291E-005	  2.30190E-005	 -3.46703E-005
  2.88358E+002	 -1.45006E-005	 -6.33338E-005	 -1.26527E-004	 -1.42494E-005
  3.14573E+002	 -4.86275E-005	 -4.57997E-005	  1.42139E-005	 -5.14061E-005
  3.40787E+002	  2.88595E-006	 -1.77932E-005	 -6.45573E-005	  2.23365E-005
  3.67002E+002	 -1.52238E-005	 -5.52668E-005	  5.30471E-006	  2.48409E-005
  3.93216E+002	  4.73818E-005	  5.37050E-005	  6.12475E-005	 -7.53071E-007
  4.19430E+002	  2.22018E-005	  2.36044E-005	  5.36043E-006	  7.91741E-006
  4.71859E+002	  4.12132E-006	 -2.17100E-005	 -4.24499E-006	 -4.79264E-006
  5.24288E+002	 -3.66337E-005	 -1.38425E-005	 -3.73308E-005	 -4.78087E-005
  5.76717E+002	  1.59952E-005	  9.41157E-006	 -1.75610E-005	  5.00708E-005
  6.29146E+002	 -4.17276E-005	 -5.16885E-005	 -2.15385E-005	 -7.14147E-005
  6.81574E+002	 -2.97073E-006	 -1.57582E-005	 -4.61752E-006	 -1.10719E-005
  7.34003E+002	 -2.04896E-005	 -3.88213E-005	  1.43482E-005	 -2.67989E-005
  7.86432E+002	  2.08588E-006	  1.08877E-005	  1.11955E-005	  2.50581E-005
  8.38861E+002	 -2.46292E-005	 -7.95427E-006	 -3.05001E-005	 -1.13954E-005
  9.43718E+002	  1.41281E-005	  3.25105E-005	 -3.61900E-006	  2.94933E-005
  1.04858E+003	 -1.59925E-005	 -3.02181E-005	 -2.18402E-005	 -5.78442E-006
  1.15343E+003	 -2.59428E-005	 -1.74860E-005	 -1.84120E-005	 -6.13622E-006
  1.25829E+003	  1.20013E-005	  4.29231E-005	  8.46733E-006	 -2.69910E-005
  1.36315E+003	  1.18368E-005	  3.38738E-005	 -1.40767E-006	  3.24765E-005
  1.46801E+003	 -2.50393E-005	 -4.25725E-005	 -2.48048E-005	 -2.62332E-005
  1.57286E+003	  2.22848E-005	  2.24009E-005	  2.20741E-005	  1.33214E-005
  1.67772E+003	  1.07539E-005	  1.44910E-005	 -2.46721E-006	  1.13521E-005
  1.88744E+003	  3.54271E-005	  3.79949E-005	  3.35930E-005	  1.46885E-005
  2.09715E+003	  1.84498E-005	  2.58737E-005	  2.31543E-005	  1.82108E-005
  2.30687E+003	  9.66176E-006	  5.84260E-006	  2.28707E-005	 -2.04885E-006
  2.51658E+003	  1.69326E-005	  4.19370E-005	  3.51646E-007	  1.22162E-005
  2.72630E+003	  1.21872E-005	 -8.72671E-006	  7.71256E-006	  2.88374E-005
  2.93601E+003	 -4.06738E-005	 -5.74753E-005	 -5.62713E-005	 -2.78156E-005
  3.14573E+003	 -1.10158E-005	  4.47080E-006	 -1.83649E-005	  1.08966E-005
  3.35544E+003	 -6.60681E-006	 -5.03233E-006	 -1.90893E-005	 -1.34406E-005
  3.77487E+003	  5.14523E-006	  3.76544E-006	  4.39171E-006	  3.51335E-006
  4.19430E+003	  1.66712E-005	  5.72529E-006	  6.89032E-006	  3.04338E-005
  4.61373E+003	  2.13223E-005	  1.86531E-005	  3.69206E-005	  8.85456E-006
  5.03317E+003	  2.08920E-005	  3.46488E-005	  2.23549E-005	  1.13265E-005
  5.45260E+003	 -4.14766E-007	 -6.65149E-006	 -2.37603E-006	 -2.62293E-006
  5.87203E+003	 -7.50397E-006	  5.00558E-006	 -1.36856E-006	 -4.99536E-006
  6.29146E+003	  1.44465E-005	  7.82482E-006	  1.33997E-005	  1.08663E-005
  6.71089E+003	 -3.88446E-006	 -3.16538E-006	 -7.67429E-006	  6.14930E-006
  7.54975E+003	  7.39978E-006	  9.10763E-007	 -1.03420E-006	  9.45124E-006
  8.38861E+003	 -1.25480E-005	 -1.82173E-005	 -2.21354E-005	 -6.79507E-006
  9.22747E+003	 -8.10327E-006	 -8.32123E-006	 -6.88173E-006	 -8.52503E-006
  1.00663E+004	  1.45786E-005	  1.91554E-005	  2.00556E-005	  8.85882E-006
  1.09052E+004	 -7.14750E-006	 -2.42352E-006	 -1.72914E-005	 -3.31566E-006
  1.17441E+004	  4.66343E-006	 -5.47770E-007	  4.14448E-006	  7.70278E-007

"Count Rate"
       0.27344	      57.09107	      68.81640	      57.09107	      68.81640
       0.54688	      56.63770	      68.41056	      56.63770	      68.41056
       0.82031	      56.44758	      67.77439	      56.44758	      67.77439
       1.09375	      56.69254	      67.42340	      56.69254	      67.42340
       1.36719	      56.14412	      67.82192	      56.14412	      67.82192
       1.64063	      57.13494	      70.06681	      57.13494	      70.06681
       1.91406	      54.94124	      67.08703	      54.94124	      67.08703
       2.18750	      56.54995	      67.88773	      56.54995	      67.88773
       2.46094	      56.44758	      68.48734	      56.44758	      68.48734
       2.73438	      56.39640	      68.27163	      56.39640	      68.27163
       3.00781	      57.25560	      68.09248	      57.25560	      68.09248
       3.28125	      55.42020	      66.36311	      55.42020	      66.36311
       3.55469	      57.09107	      69.41601	      57.09107	      69.41601
       3.82813	      55.40192	      68.06322	      55.40192	      68.06322
       4.10156	      56.68158	      68.53853	      56.68158	      68.53853
       4.37500	      55.29589	      66.56420	      55.29589	      66.56420
       4.64844	      56.24649	      66.84573	      56.24649	      66.84573
       4.92188	      55.93572	      67.99376	      55.93572	      67.99376
       5.19531	      56.11121	      68.61897	      56.11121	      68.61897
       5.46875	      57.45668	      68.16194	      57.45668	      68.16194
       5.74219	      56.33059	      67.87676	      56.33059	      67.87676
       6.01563	      57.09838	      68.44713	      57.09838	      68.44713
       6.28906	      55.74560	      67.48555	      55.74560	      67.48555
       6.56250	      57.40550	      68.70306	      57.40550	      68.70306
       6.83594	      55.96862	      68.21313	      55.96862	      68.21313
       7.10938	      56.63404	      68.07054	      56.63404	      68.07054
       7.38281	      57.27022	      67.33199	      57.27022	      67.33199
       7.65625	      56.54264	      67.75611	      56.54264	      67.75611
       7.92969	      56.45855	      67.41974	      56.45855	      67.41974
       8.20313	      56.47683	      68.58241	      56.47683	      68.58241
       8.47656	      56.78395	      67.86945	      56.78395	      67.86945
       8.75000	      55.31417	      67.12360	      55.31417	      67.12360
       9.02344	      56.27574	      67.95354	      56.27574	      67.95354
       9.29688	      56.36349	      67.62449	      56.36349	      67.62449
       9.57031	      56.00884	      68.55681	      56.00884	      68.55681
       9.84375	      55.88819	      67.67202	      55.88819	      67.67202
      10.11719	      55.73097	      68.44347	      55.73097	      68.44347
      10.39063	      57.36528	      68.41056	      57.36528	      68.41056
      10.66406	      56.67426	      68.04129	      56.67426	      68.04129
      10.93750	      55.59570	      68.14732	      55.59570	      68.14732
      11.21094	      56.72911	      68.64456	      56.72911	      68.64456
      11.48438	      56.41833	      68.05226	      56.41833	      68.05226
      11.75781	      56.60480	      68.14732	      56.60480	      68.14732
      12.03125	      56.70717	      67.63180	      56.70717	      67.63180
      12.30469	      55.86625	      68.45809	      55.86625	      68.45809
      12.57813	      57.15688	      68.48734	      57.15688	      68.48734
      12.85156	      56.73642	      68.89684	      56.73642	      68.89684
      13.12500	      55.96131	      66.59711	      55.96131	      66.59711
      13.39844	      56.79492	      67.95720	      56.79492	      67.95720
      13.67188	      56.08562	      68.62262	      56.08562	      68.62262
      13.94531	      58.10748	      68.45809	      58.10748	      68.45809
      14.21875	      56.67792	      68.28625	      56.67792	      68.28625
      14.49219	      57.16053	      68.71768	      57.16053	      68.71768
      14.76563	      55.99422	      66.83841	      55.99422	      66.83841
      15.03906	      55.29955	      67.83655	      55.29955	      67.83655
      15.31250	      57.61024	      69.87303	      57.61024	      69.87303
      15.58594	      57.41647	      68.56046	      57.41647	      68.56046
      15.85938	      56.84610	      67.63546	      56.84610	      67.63546
      16.13281	      56.68889	      69.16373	      56.68889	      69.16373
      16.40625	      57.53346	      68.98824	      57.53346	      68.98824
      16.67969	      57.48228	      69.45623	      57.48228	      69.45623
      16.95313	      55.73097	      67.20037	      55.73097	      67.20037
      17.22656	      57.44206	      69.75603	      57.44206	      69.75603
      17.50000	      57.23731	      69.95712	      57.23731	      69.95712
      17.77344	      56.77664	      67.87676	      56.77664	      67.87676
      18.04688	      56.44392	      69.11255	      56.44392	      69.11255
      18.32031	      57.37625	      68.71403	      57.37625	      68.71403
      18.59375	      55.39095	      67.21865	      55.39095	      67.21865
      18.86719	      56.30865	      69.43063	      56.30865	      69.43063
      19.14063	      56.52071	      69.16008	      56.52071	      69.16008
      19.41406	      55.60666	      67.14919	      55.60666	      67.14919
      19.68750	      56.15509	      67.34662	      56.15509	      67.34662
      19.96094	      55.85894	      67.78170	      55.85894	      67.78170
      20.23438	      55.56279	      67.51846	      55.56279	      67.51846
      20.50781	      56.63039	      68.54585	      56.63039	      68.54585
      20.78125	      57.78939	      68.94071	      57.78939	      68.94071
      21.05469	      56.53899	      67.07607	      56.53899	      67.07607
      21.32813	      55.96862	      68.39228	      55.96862	      68.39228
      21.60156	      58.03801	      68.72134	      58.03801	      68.72134
      21.87500	      57.06913	      68.14366	      57.06913	      68.14366
      22.14844	      57.18247	      68.45809	      57.18247	      68.45809
      22.42188	      55.97228	      67.38683	      55.97228	      67.38683
      22.69531	      57.12397	      67.13821	      57.12397	      67.13821
      22.96875	      57.18613	      69.64269	      57.18613	      69.64269
      23.24219	      55.93937	      68.35938	      55.93937	      68.35938
      23.51563	      56.07465	      67.29909	      56.07465	      67.29909
      23.78906	      56.16606	      67.54040	      56.16606	      67.54040
      24.06250	      56.15509	      68.22044	      56.15509	      68.22044
      24.33594	      56.12218	      67.31371	      56.12218	      67.31371
      24.60938	      57.55174	      68.40325	      57.55174	      68.40325
      24.88281	      56.29037	      68.32281	      56.29037	      68.32281
      25.15625	      56.04906	      67.84751	      56.04906	      67.84751
      25.42969	      56.97041	      68.15098	      56.97041	      68.15098
      25.70313	      55.93937	      66.92616	      55.93937	      66.92616
      25.97656	      57.14957	      69.10523	      57.14957	      69.10523
      26.25000	      56.88632	      69.31729	      56.88632	      69.31729
      26.52344	      57.10569	      68.05226	      57.10569	      68.05226
      26.79688	      58.17695	      69.88766	      58.17695	      69.88766
      27.07031	      56.33059	      68.44713	      56.33059	      68.44713
      27.34375	      57.73455	      69.10523	      57.73455	      69.10523
      27.61719	      56.47683	      68.16926	      56.47683	      68.16926
      27.89063	      55.65054	      66.76529	      55.65054	      66.76529
      28.16406	      57.03257	      69.90228	      57.03257	      69.90228
      28.43750	      56.82417	      68.89684	      56.82417	      68.89684
      28.71094	      56.39640	      68.08151	      56.39640	      68.08151
      28.98438	      57.76746	      69.07964	      57.76746	      69.07964
      29.25781	      56.17337	      67.92795	      56.17337	      67.92795
      29.53125	      56.10025	      67.56965	      56.10025	      67.56965
      29.80469	      57.02160	      67.76342	      57.02160	      67.76342
      30.07813	      56.51339	      68.26066	      56.51339	      68.26066
      30.35156	      57.20441	      68.89318	      57.20441	      68.89318
      30.62500	      57.63584	      69.44160	      57.63584	      69.44160
      30.89844	      55.88087	      66.56054	      55.88087	      66.56054
      31.17188	      55.93572	      68.12904	      55.93572	      68.12904
      31.44531	      56.70717	      68.51659	      56.70717	      68.51659
      31.71875	      55.89185	      67.98645	      55.89185	      67.98645
      31.99219	      57.92102	      68.35207	      57.92102	      68.35207
      32.26563	      56.44392	      68.11807	      56.44392	      68.11807
      32.53906	      56.35618	      69.27342	      56.35618	      69.27342
      32.81250	      55.71635	      67.06875	      55.71635	      67.06875
      33.08594	      56.95945	      68.22775	      56.95945	      68.22775
      33.35938	      55.95400	      67.96085	      55.95400	      67.96085
      33.63281	      56.56823	      67.54040	      56.56823	      67.54040
      33.90625	      56.65598	      67.74879	      56.65598	      67.74879
      34.17969	      56.68158	      68.86393	      56.68158	      68.86393
      34.45313	      57.57368	      69.29536	      57.57368	      69.29536
      34.72656	      56.52071	      68.92609	      56.52071	      68.92609
      35.00000	      56.21358	      67.76342	      56.21358	      67.76342
      35.27344	      56.69620	      67.68665	      56.69620	      67.68665
      35.54688	      55.69075	      67.49652	      55.69075	      67.49652
      35.82031	      58.10382	      69.43795	      58.10382	      69.43795
      36.09375	      57.36162	      68.22044	      57.36162	      68.22044
      36.36719	      56.02346	      68.25700	      56.02346	      68.25700
      36.64063	      57.49324	      68.22410	      57.49324	      68.22410
      36.91406	      56.73642	      68.62262	      56.73642	      68.62262
      37.18750	      56.93385	      67.18209	      56.93385	      67.18209
      37.46094	      56.29402	      69.26245	      56.29402	      69.26245
      37.73438	      56.44392	      67.74149	      56.44392	      67.74149
      38.00781	      57.33969	      68.55681	      57.33969	      68.55681
      38.28125	      55.85894	      68.32281	      55.85894	      68.32281
      38.55469	      56.41102	      69.03942	      56.41102	      69.03942
      38.82813	      56.33424	      68.09613	      56.33424	      68.09613
      39.10156	      57.20075	      69.84378	      57.20075	      69.84378
      39.37500	      57.31775	      69.01749	      57.31775	      69.01749
      39.64844	      56.85707	      68.37035	      56.85707	      68.37035
      39.92188	      55.50429	      66.18396	      55.50429	      66.18396
      40.19531	      56.42930	      67.84386	      56.42930	      67.84386
      40.46875	      57.43475	      69.81087	      57.43475	      69.81087
      40.74219	      56.60845	      68.16560	      56.60845	      68.16560
      41.01563	      56.34155	      68.04129	      56.34155	      68.04129
      41.28906	      56.87901	      68.79812	      56.87901	      68.79812
      41.56250	      56.06003	      67.96085	      56.06003	      67.96085
      41.83594	      56.24284	      68.55315	      56.24284	      68.55315
      42.10938	      56.33789	      69.68291	      56.33789	      69.68291
      42.38281	      57.79671	      69.79991	      57.79671	      69.79991
      42.65625	      57.18613	      68.66284	      57.18613	      68.66284
      42.92969	      57.59562	      68.11442	      57.59562	      68.11442
      43.20313	      57.18979	      68.60434	      57.18979	      68.60434
      43.47656	      56.11121	      68.37766	      56.11121	      68.37766
      43.75000	      57.14591	      68.02666	      57.14591	      68.02666
      44.02344	      55.97594	      68.14732	      55.97594	      68.14732
      44.29688	      55.77485	      67.87676	      55.77485	      67.87676
      44.57031	      56.21724	      68.27894	      56.21724	      68.27894
      44.84375	      56.74373	      68.16560	      56.74373	      68.16560
      45.11719	      57.23366	      68.99921	      57.23366	      68.99921
      45.39063	      56.40005	      68.61897	      56.40005	      68.61897
      45.66406	      56.74373	      68.37400	      56.74373	      68.37400
      45.93750	      57.24097	      68.98458	      57.24097	      68.98458
      46.21094	      56.57555	      67.46362	      56.57555	      67.46362
      46.48438	      56.89363	      68.30088	      56.89363	      68.30088
      46.75781	      55.53354	      67.60621	      55.53354	      67.60621
      47.03125	      56.86804	      68.72865	      56.86804	      68.72865
      47.30469	      56.95579	      68.96996	      56.95579	      68.96996
      47.57813	      55.74194	      66.45817	      55.74194	      66.45817
      47.85156	      57.56637	      68.58241	      57.56637	      68.58241
      48.12500	      57.72724	      70.10337	      57.72724	      70.10337
      48.39844	      56.06734	      67.81095	      56.06734	      67.81095
      48.67188	      56.47318	      68.11807	      56.47318	      68.11807
      48.94531	      56.65964	      69.19299	      56.65964	      69.19299
      49.21875	      57.52615	      69.21127	      57.52615	      69.21127
      49.49219	      57.44206	      68.93705	      57.44206	      68.93705
      49.76563	      58.16598	      68.83102	      58.16598	      68.83102
      50.03906	      57.22269	      69.12717	      57.22269	      69.12717
      50.31250	      57.62121	      68.96996	      57.62121	      68.96996
      50.58594	      56.04906	      68.22410	      56.04906	      68.22410
      50.85938	      57.03257	      69.36482	      57.03257	      69.36482
      51.13281	      56.82782	      68.14732	      56.82782	      68.14732
      51.40625	      56.30865	      67.58793	      56.30865	      67.58793
      51.67969	      56.30133	      68.39228	      56.30133	      68.39228
      51.95313	      56.18068	      67.49652	      56.18068	      67.49652
      52.22656	      57.94661	      67.50018	      57.94661	      67.50018
      52.50000	      57.29581	      68.37400	      57.29581	      68.37400
      52.77344	      56.04540	      68.41056	      56.04540	      68.41056
      53.04688	      56.74007	      68.37035	      56.74007	      68.37035
      53.32031	      56.82417	      70.07412	      56.82417	      70.07412
      53.59375	      57.71627	      68.50928	      57.71627	      68.50928
      53.86719	      56.66695	      67.24059	      56.66695	      67.24059
      54.14063	      57.47862	      69.04308	      57.47862	      69.04308
      54.41406	      56.77298	      68.33379	      56.77298	      68.33379
      54.68750	      57.47131	      69.00652	      57.47131	      69.00652
      54.96094	      57.10935	      68.42885	      57.10935	      68.42885
      55.23438	      56.67792	      67.75246	      56.67792	      67.75246
      55.50781	      56.02346	      67.86945	      56.02346	      67.86945
      55.78125	      56.88632	      69.11255	      56.88632	      69.11255
      56.05469	      56.38543	      69.03942	      56.38543	      69.03942
      56.32813	      56.22821	      68.68478	      56.22821	      68.68478
      56.60156	      56.61942	      69.32826	      56.61942	      69.32826
      56.87500	      56.64867	      68.08151	      56.64867	      68.08151
      57.14844	      57.04719	      68.79446	      57.04719	      68.79446
      57.42188	      56.69620	      67.88408	      56.69620	      67.88408
      57.69531	      55.78582	      68.16926	      55.78582	      68.16926
      57.96875	      56.47683	      68.32647	      56.47683	      68.32647
      58.24219	      57.13129	      68.73596	      57.13129	      68.73596
      58.51563	      57.54809	      67.63911	      57.54809	      67.63911
      58.78906	      55.51526	      67.24425	      55.51526	      67.24425
      59.06250	      57.17150	      68.85661	      57.17150	      68.85661
      59.33594	      55.52257	      66.48742	      55.52257	      66.48742
      59.60938	      56.98869	      67.88773	      56.98869	      67.88773
      59.88281	      57.50056	      69.27708	      57.50056	      69.27708
      60.15625	      56.69620	      68.37035	      56.69620	      68.37035
      60.42969	      56.74373	      69.42698	      56.74373	      69.42698
      60.70313	      56.52802	      68.30088	      56.52802	      68.30088
      60.97656	      56.94117	      68.97727	      56.94117	      68.97727
      61.25000	      57.64315	      67.41243	      57.64315	      67.41243
      61.52344	      55.78947	      67.48921	      55.78947	      67.48921
      61.79688	      56.66695	      68.22775	      56.66695	      68.22775
      62.07031	      56.29402	      68.29356	      56.29402	      68.29356
      62.34375	      56.06003	      68.69575	      56.06003	      68.69575
      62.61719	      55.72366	      67.92064	      55.72366	      67.92064
      62.89063	      57.27022	      69.74141	      57.27022	      69.74141
      63.16406	      55.81872	      68.50562	      55.81872	      68.50562
      63.43750	      56.44027	      68.62627	      56.44027	      68.62627
      63.71094	      57.03988	      69.42698	      57.03988	      69.42698
      63.98438	      55.97228	      68.01570	      55.97228	      68.01570
      64.25781	      55.93572	      68.72499	      55.93572	      68.72499
      64.53125	      56.88998	      69.04674	      56.88998	      69.04674
      64.80469	      57.31044	      68.67015	      57.31044	      68.67015
      65.07813	      57.48228	      68.74328	      57.48228	      68.74328
      65.35156	      55.89185	      68.71403	      55.89185	      68.71403
      65.62500	      57.23366	      68.90049	      57.23366	      68.90049
      65.89844	      57.10935	      67.85483	      57.10935	      67.85483
      66.17188	      56.20262	      67.66105	      56.20262	      67.66105
      66.44531	      56.76933	      68.44347	      56.76933	      68.44347
      66.71875	      56.60845	      67.20403	      56.60845	      67.20403
      66.99219	      56.22090	      68.38863	      56.22090	      68.38863
      67.26563	      57.76015	      69.16008	      57.76015	      69.16008
      67.53906	      56.81320	      69.35751	      56.81320	      69.35751
      67.81250	      54.94855	      66.42526	      54.94855	      66.42526
      68.08594	      56.52802	      68.19485	      56.52802	      68.19485
      68.35938	      56.81320	      68.71403	      56.81320	      68.71403
      68.63281	      56.01250	      68.39960	      56.01250	      68.39960
      68.90625	      55.41289	      67.90236	      55.41289	      67.90236
      69.17969	      57.13860	      68.74693	      57.13860	      68.74693
      69.45313	      57.05816	      68.59703	      57.05816	      68.59703

Monitor Diode	1630989.68
"StandardDeviation"
  3.12500E-006	  4.49840E-002
  6.25000E-006	  4.49841E-002
  9.37500E-006	  4.49841E-002
  1.25000E-005	  4.49836E-002
  1.56250E-005	  4.49841E-002
  1.87500E-005	  4.49841E-002
  2.18750E-005	  4.49841E-002
  2.50000E-005	  4.49841E-002
  2.81250E-005	  4.47888E-002
  3.12500E-005	  4.49838E-002
  3.43750E-005	  4.49837E-002
  3.75000E-005	  4.38501E-002
  4.06250E-005	  4.49840E-002
  4.37500E-005	  4.49839E-002
  4.68750E-005	  4.49636E-002
  5.00000E-005	  3.18129E-002
  5.62500E-005	  3.11853E-002
  6.25000E-005	  3.13678E-002
  6.87500E-005	  3.11676E-002
  7.50000E-005	  3.14061E-002
  8.12500E-005	  3.15843E-002
  8.75000E-005	  3.14866E-002
  9.37500E-005	  3.10226E-002
  1.00000E-004	  2.20677E-002
  1.12500E-004	  2.21448E-002
  1.25000E-004	  2.20851E-002
  1.37500E-004	  2.21487E-002
  1.50000E-004	  2.19343E-002
  1.62500E-004	  2.21522E-002
  1.75000E-004	  2.20155E-002
  1.87500E-004	  2.19806E-002
  2.00000E-004	  1.55594E-002
  2.25000E-004	  1.55933E-002
  2.50000E-004	  1.55792E-002
  2.75000E-004	  1.56474E-002
  3.00000E-004	  1.56223E-002
  3.25000E-004	  1.55750E-002
  3.50000E-004	  1.56066E-002
  3.75000E-004	  1.56510E-002
  4.00000E-004	  1.10319E-002
  4.50000E-004	  1.10211E-002
  5.00000E-004	  1.10220E-002
  5.50000E-004	  1.10288E-002
  6.00000E-004	  1.09982E-002
  6.50000E-004	  1.10616E-002
  7.00000E-004	  1.09552E-002
  7.50000E-004	  1.10319E-002
  8.00000E-004	  7.79942E-003
  9.00000E-004	  7.82396E-003
  1.00000E-003	  7.83670E-003
  1.10000E-003	  7.81583E-003
  1.20000E-003	  7.82388E-003
  1.30000E-003	  7.79348E-003
  1.40000E-003	  7.79506E-003
  1.50000E-003	  7.79339E-003
  1.60000E-003	  5.53307E-003
  1.80000E-003	  5.52025E-003
  2.00000E-003	  5.52083E-003
  2.20000E-003	  5.51459E-003
  2.40000E-003	  5.50829E-003
  2.60000E-003	  5.50678E-003
  2.80000E-003	  5.50043E-003
  3.00000E-003	  5.48896E-003
  3.20000E-003	  3.91613E-003
  3.60000E-003	  3.91265E-003
  4.00000E-003	  3.90464E-003
  4.40000E-003	  3.89635E-003
  4.80000E-003	  3.89170E-003
  5.20000E-003	  3.88914E-003
  5.60000E-003	  3.88207E-003
  6.00000E-003	  3.87779E-003
  6.40000E-003	  2.78011E-003
  7.20000E-003	  2.76918E-003
  8.00000E-003	  2.76421E-003
  8.80000E-003	  2.75392E-003
  9.60000E-003	  2.74789E-003
  1.04000E-002	  2.74274E-003
  1.12000E-002	  2.73141E-003
  1.20000E-002	  2.72648E-003
  1.28000E-002	  1.97481E-003
  1.44000E-002	  1.96508E-003
  1.60000E-002	  1.95387E-003
  1.76000E-002	  1.94346E-003
  1.92000E-002	  1.93366E-003
  2.08000E-002	  1.92210E-003
  2.24000E-002	  1.91552E-003
  2.40000E-002	  1.90806E-003
  2.56000E-002	  1.40202E-003
  2.88000E-002	  1.39028E-003
  3.20000E-002	  1.37949E-003
  3.52000E-002	  1.36861E-003
  3.84000E-002	  1.36006E-003
  4.16000E-002	  1.35129E-003
  4.48000E-002	  1.34595E-003
  4.80000E-002	  1.33935E-003
  5.12000E-002	  1.00333E-003
  5.76000E-002	  9.95018E-004
  6.40000E-002	  9.87487E-004
  7.04000E-002	  9.80996E-004
  7.68000E-002	  9.77145E-004
  8.32000E-002	  9.72797E-004
  8.96000E-002	  9.70196E-004
  9.60000E-002	  9.67697E-004
  1.02400E-001	  7.45933E-004
  1.15200E-001	  7.42860E-004
  1.28000E-001	  7.41364E-004
  1.40800E-001	  7.36962E-004
  1.53600E-001	  7.36962E-004
  1.66400E-001	  7.36962E-004
  1.79200E-001	  7.36962E-004
  1.92000E-001	  7.36962E-004
  2.04800E-001	  5.83171E-004
  2.30400E-001	  5.83171E-004
  2.56000E-001	  5.83171E-004
  2.81600E-001	  5.83171E-004
  3.07200E-001	  5.83171E-004
  3.32800E-001	  5.83171E-004
  3.58400E-001	  5.83171E-004
  3.84000E-001	  5.83171E-004
  4.09600E-001	  4.68549E-004
  4.60800E-001	  4.68549E-004
  5.12000E-001	  4.68549E-004
  5.63200E-001	  4.68549E-004
  6.14400E-001	  4.68549E-004
  6.65600E-001	  4.68549E-004
  7.16800E-001	  4.68549E-004
  7.68000E-001	  4.68549E-004
  8.19200E-001	  3.72850E-004
  9.21600E-001	  3.72850E-004
  1.02400E+000	  3.72850E-004
  1.12640E+000	  3.72850E-004
  1.22880E+000	  3.72850E-004
  1.33120E+000	  3.72850E-004
  1.43360E+000	  3.72850E-004
  1.53600E+000	  3.72850E-004
  1.63840E+000	  2.84048E-004
  1.84320E+000	  2.84048E-004
  2.04800E+000	  2.84048E-004
  2.25280E+000	  2.84048E-004
  2.45760E+000	  2.84048E-004
  2.66240E+000	  2.84048E-004
  2.86720E+000	  2.84048E-004
  3.07200E+000	  2.84048E-004
  3.27680E+000	  2.09213E-004
  3.68640E+000	  2.09213E-004
  4.09600E+000	  2.09213E-004
  4.50560E+000	  2.09213E-004
  4.91520E+000	  2.09213E-004
  5.32480E+000	  2.09213E-004
  5.73440E+000	  2.09213E-004
  6.14400E+000	  2.09213E-004
  6.55360E+000	  1.50932E-004
  7.37280E+000	  1.50932E-004
  8.19200E+000	  1.50932E-004
  9.01120E+000	  1.50932E-004
  9.83040E+000	  1.50932E-004
  1.06496E+001	  1.50932E-004
  1.14688E+001	  1.50932E-004
  1.22880E+001	  1.50932E-004
  1.31072E+001	  1.07784E-004
  1.47456E+001	  1.07784E-004
  1.63840E+001	  1.07784E-004
  1.80224E+001	  1.07784E-004
  1.96608E+001	  1.07784E-004
  2.12992E+001	  1.07784E-004
  2.29376E+001	  1.07784E-004
  2.45760E+001	  1.07784E-004
  2.62144E+001	  7.65893E-005
  2.94912E+001	  7.65893E-005
  3.27680E+001	  7.65893E-005
  3.60448E+001	  7.65893E-005
  3.93216E+001	  7.65893E-005
  4.25984E+001	  7.65893E-005
  4.58752E+001	  7.65893E-005
  4.91520E+001	  7.65893E-005
  5.24288E+001	  5.42888E-005
  5.89824E+001	  5.42888E-005
  6.55360E+001	  5.42888E-005
  7.20896E+001	  5.42888E-005
  7.86432E+001	  5.42888E-005
  8.51968E+001	  5.42888E-005
  9.17504E+001	  5.42888E-005
  9.83040E+001	  5.42888E-005
  1.04858E+002	  3.84342E-005
  1.17965E+002	  3.84342E-005
  1.31072E+002	  3.84342E-005
  1.44179E+002	  3.84342E-005
  1.57286E+002	  3.84342E-005
  1.70394E+002	  3.84342E-005
  1.83501E+002	  3.84342E-005
  1.96608E+002	  3.84342E-005
  2.09715E+002	  2.71927E-005
  2.35930E+002	  2.71927E-005
  2.62144E+002	  2.71927E-005
  2.88358E+002	  2.71927E-005
  3.14573E+002	  2.71927E-005
  3.40787E+002	  2.71927E-005
  3.67002E+002	  2.71927E-005
  3.93216E+002	  2.71927E-005
  4.19430E+002	  1.92327E-005
  4.71859E+002	  1.92327E-005
  5.24288E+002	  1.92327E-005
  5.76717E+002	  1.92327E-005
  6.29146E+002	  1.92327E-005
  6.81574E+002	  1.92327E-005
  7.34003E+002	  1.92327E-005
  7.86432E+002	  1.92327E-005
  8.38861E+002	  1.35999E-005
  9.43718E+002	  1.35999E-005
  1.04858E+003	  1.35999E-005
  1.15343E+003	  1.35999E-005
  1.25829E+003	  1.35999E-005
  1.36315E+003	  1.35999E-005
  1.46801E+003	  1.35999E-005
  1.57286E+003	  1.35999E-005
  1.67772E+003	  9.61474E-006
  1.88744E+003	  9.61474E-006
  2.09715E+003	  9.61474E-006
  2.30687E+003	  9.61474E-006
  2.51658E+003	  9.61474E-006
  2.72630E+003	  9.61474E-006
  2.93601E+003	  9.61474E-006
  3.14573E+003	  9.61474E-006
  3.35544E+003	  6.79530E-006
  3.77487E+003	  6.79530E-006
  4.19430E+003	  6.79530E-006
  4.61373E+003	  6.79530E-006
  5.03317E+003	  6.79530E-006
  5.45260E+003	  6.79530E-006
  5.87203E+003	  6.79530E-006
  6.29146E+003	  6.79530E-006
  6.71089E+003	  4.79999E-006
  7.54975E+003	  4.79999E-006
  8.38861E+003	  4.79999E-006
  9.22747E+003	  4.79999E-006
  1.00663E+004	  4.79999E-006
  1.09052E+004	  4.79999E-006
  1.17441E+004	  4.79999E-006
