ALV-7004 or ALV-7004/FAST Data
Date :	"3/27/2010"
Time :	"11:22:27 AM"
Samplename : 	"BSA 1 g/l in YCl3 8.3mM"
SampMemo(0) : 	""
SampMemo(1) : 	""
SampMemo(2) : 	""
SampMemo(3) : 	""
SampMemo(4) : 	""
SampMemo(5) : 	""
SampMemo(6) : 	""
SampMemo(7) : 	""
SampMemo(8) : 	""
SampMemo(9) : 	""
Temperature [K] :	     295.70084
Viscosity [cp]  :	       0.94217
Refractive Index:	       1.33200
Wavelength [nm] :	     632.80000
Angle [°]       :	     150.00000
Duration [s]    :	        70
Runs            :	         1
Mode            :	"C-CH0/1+1/0"
MeanCR0 [kHz]   :	     113.90923
MeanCR1 [kHz]   :	     136.95705
MeanCR2 [kHz]   :	       0.00000
MeanCR3 [kHz]   :	       0.00000

"Correlation"
  3.12500E-006	  3.00002E-001	  2.95302E-001	 -1.00000E+000	 -1.00000E+000
  6.25000E-006	  2.84141E-001	  2.79442E-001	 -1.00000E+000	 -1.00000E+000
  9.37500E-006	  2.99855E-001	  3.01764E-001	 -1.00000E+000	 -1.00000E+000
  1.25000E-005	  2.91778E-001	  2.94421E-001	 -1.00000E+000	 -1.00000E+000
  1.56250E-005	  3.40829E-001	  3.33780E-001	 -1.00000E+000	 -1.00000E+000
  1.87500E-005	  3.22912E-001	  3.53459E-001	 -1.00000E+000	 -1.00000E+000
  2.18750E-005	  3.23793E-001	  3.22031E-001	 -1.00000E+000	 -1.00000E+000
  2.50000E-005	  2.96918E-001	  3.16744E-001	 -1.00000E+000	 -1.00000E+000
  2.81250E-005	  3.19828E-001	  3.14100E-001	 -1.00000E+000	 -1.00000E+000
  3.12500E-005	  2.95009E-001	  2.92365E-001	 -1.00000E+000	 -1.00000E+000
  3.43750E-005	  2.93393E-001	  3.00296E-001	 -1.00000E+000	 -1.00000E+000
  3.75000E-005	  3.20709E-001	  3.14982E-001	 -1.00000E+000	 -1.00000E+000
  4.06250E-005	  2.99561E-001	  3.02352E-001	 -1.00000E+000	  5.15336E-001
  4.37500E-005	  2.82966E-001	  2.61818E-001	 -1.00000E+000	  6.38703E-001
  4.68750E-005	  3.15863E-001	  3.26437E-001	 -1.00000E+000	 -2.57600E-001
  5.00000E-005	  3.18580E-001	  3.22031E-001	 -1.00000E+000	  1.02664E+000
  5.62500E-005	  3.08446E-001	  3.11898E-001	 -1.00000E+000	  4.97136E-001
  6.25000E-005	  2.99047E-001	  2.95156E-001	 -1.00000E+000	  5.02022E-001
  6.87500E-005	  3.07712E-001	  2.99121E-001	 -9.57092E-001	  5.72256E-001
  7.50000E-005	  2.91851E-001	  3.03527E-001	  8.65333E-001	  3.77678E-001
  8.12500E-005	  3.08299E-001	  3.20709E-001	  4.23367E-001	  4.06871E-001
  8.75000E-005	  3.24895E-001	  3.31136E-001	  4.06946E-001	  4.24093E-001
  9.37500E-005	  3.24160E-001	  3.33486E-001	  4.09948E-001	  4.07726E-001
  1.00000E-004	  3.08373E-001	  3.05289E-001	  3.65981E-001	  3.62959E-001
  1.12500E-004	  3.10209E-001	  3.03233E-001	  3.70395E-001	  3.89709E-001
  1.25000E-004	  3.04187E-001	  3.04261E-001	  3.43202E-001	  3.51661E-001
  1.37500E-004	  3.12962E-001	  3.10062E-001	  3.19277E-001	  3.48607E-001
  1.50000E-004	  3.03416E-001	  3.05583E-001	  3.24044E-001	  3.61799E-001
  1.62500E-004	  3.01728E-001	  2.93246E-001	  3.09124E-001	  3.36210E-001
  1.75000E-004	  3.18396E-001	  3.24381E-001	  3.10183E-001	  3.36637E-001
  1.87500E-004	  3.08703E-001	  3.11457E-001	  2.97205E-001	  3.45615E-001
  2.00000E-004	  3.07161E-001	  3.00553E-001	  3.03164E-001	  3.42805E-001
  2.25000E-004	  3.03600E-001	  3.06023E-001	  3.03738E-001	  3.28392E-001
  2.50000E-004	  2.99359E-001	  3.00553E-001	  3.01178E-001	  3.23110E-001
  2.75000E-004	  3.03765E-001	  3.01874E-001	  3.07314E-001	  3.24667E-001
  3.00000E-004	  3.03068E-001	  2.99488E-001	  3.01928E-001	  3.25980E-001
  3.25000E-004	  2.94329E-001	  2.89758E-001	  3.06166E-001	  3.29797E-001
  3.50000E-004	  3.05087E-001	  3.02682E-001	  3.07005E-001	  3.10712E-001
  3.75000E-004	  3.04518E-001	  3.00957E-001	  3.05945E-001	  3.15262E-001
  4.00000E-004	  3.07427E-001	  3.01764E-001	  3.03275E-001	  3.25217E-001
  4.50000E-004	  2.96275E-001	  2.94899E-001	  2.95395E-001	  3.19399E-001
  5.00000E-004	  2.94944E-001	  2.96422E-001	  2.99037E-001	  3.08880E-001
  5.50000E-004	  2.94504E-001	  2.93448E-001	  2.94071E-001	  3.10758E-001
  6.00000E-004	  3.04977E-001	  3.03288E-001	  2.99434E-001	  3.08116E-001
  6.50000E-004	  2.94155E-001	  2.92512E-001	  2.96079E-001	  3.04116E-001
  7.00000E-004	  2.97083E-001	  3.04628E-001	  2.89987E-001	  3.03230E-001
  7.50000E-004	  2.91557E-001	  2.86032E-001	  3.06740E-001	  2.99627E-001
  8.00000E-004	  2.93164E-001	  2.94072E-001	  2.94755E-001	  2.97497E-001
  9.00000E-004	  2.94054E-001	  2.97836E-001	  2.86787E-001	  3.04582E-001
  1.00000E-003	  2.88951E-001	  2.84563E-001	  2.88144E-001	  3.05811E-001
  1.10000E-003	  2.88694E-001	  2.86785E-001	  2.92713E-001	  2.96375E-001
  1.20000E-003	  2.80892E-001	  2.79460E-001	  2.88012E-001	  2.98039E-001
  1.30000E-003	  2.83540E-001	  2.79497E-001	  2.78962E-001	  2.94825E-001
  1.40000E-003	  2.81117E-001	  2.79699E-001	  2.73356E-001	  2.88497E-001
  1.50000E-003	  2.76330E-001	  2.77863E-001	  2.75596E-001	  2.85328E-001
  1.60000E-003	  2.78888E-001	  2.78813E-001	  2.76016E-001	  2.85641E-001
  1.80000E-003	  2.72525E-001	  2.73292E-001	  2.69725E-001	  2.78488E-001
  2.00000E-003	  2.69825E-001	  2.69441E-001	  2.66387E-001	  2.77252E-001
  2.20000E-003	  2.65104E-001	  2.63654E-001	  2.61366E-001	  2.70751E-001
  2.40000E-003	  2.62739E-001	  2.61249E-001	  2.57001E-001	  2.67911E-001
  2.60000E-003	  2.58298E-001	  2.58473E-001	  2.53850E-001	  2.67587E-001
  2.80000E-003	  2.54143E-001	  2.51024E-001	  2.50391E-001	  2.62743E-001
  3.00000E-003	  2.49264E-001	  2.46586E-001	  2.45518E-001	  2.56147E-001
  3.20000E-003	  2.46356E-001	  2.43948E-001	  2.46776E-001	  2.54046E-001
  3.60000E-003	  2.38078E-001	  2.37685E-001	  2.41027E-001	  2.46442E-001
  4.00000E-003	  2.32426E-001	  2.30985E-001	  2.31806E-001	  2.38789E-001
  4.40000E-003	  2.26518E-001	  2.25514E-001	  2.25480E-001	  2.32669E-001
  4.80000E-003	  2.20054E-001	  2.20062E-001	  2.18444E-001	  2.23973E-001
  5.20000E-003	  2.12758E-001	  2.11331E-001	  2.14841E-001	  2.19294E-001
  5.60000E-003	  2.05899E-001	  2.04660E-001	  2.08231E-001	  2.12100E-001
  6.00000E-003	  2.01920E-001	  2.01530E-001	  2.03369E-001	  2.07341E-001
  6.40000E-003	  1.96098E-001	  1.95623E-001	  1.97472E-001	  2.00429E-001
  7.20000E-003	  1.84042E-001	  1.84090E-001	  1.86542E-001	  1.88598E-001
  8.00000E-003	  1.74237E-001	  1.75301E-001	  1.75072E-001	  1.78301E-001
  8.80000E-003	  1.65173E-001	  1.64226E-001	  1.63989E-001	  1.68948E-001
  9.60000E-003	  1.54991E-001	  1.54680E-001	  1.54966E-001	  1.60174E-001
  1.04000E-002	  1.46795E-001	  1.47149E-001	  1.48539E-001	  1.50555E-001
  1.12000E-002	  1.38262E-001	  1.38184E-001	  1.41754E-001	  1.42268E-001
  1.20000E-002	  1.30435E-001	  1.30495E-001	  1.33477E-001	  1.36730E-001
  1.28000E-002	  1.24062E-001	  1.24412E-001	  1.25000E-001	  1.28322E-001
  1.44000E-002	  1.10986E-001	  1.10412E-001	  1.10959E-001	  1.12982E-001
  1.60000E-002	  9.77417E-002	  9.80080E-002	  9.85162E-002	  1.00519E-001
  1.76000E-002	  8.83866E-002	  8.96330E-002	  8.99744E-002	  9.12366E-002
  1.92000E-002	  7.91918E-002	  7.94985E-002	  8.14161E-002	  8.14568E-002
  2.08000E-002	  7.07277E-002	  7.02884E-002	  6.99789E-002	  7.28986E-002
  2.24000E-002	  6.32249E-002	  6.39684E-002	  6.41224E-002	  6.61543E-002
  2.40000E-002	  5.70958E-002	  5.70528E-002	  5.77671E-002	  5.86820E-002
  2.56000E-002	  5.08580E-002	  5.15505E-002	  5.16928E-002	  5.30340E-002
  2.88000E-002	  4.10492E-002	  4.12088E-002	  4.23766E-002	  4.18682E-002
  3.20000E-002	  3.33161E-002	  3.29457E-002	  3.38575E-002	  3.52483E-002
  3.52000E-002	  2.71173E-002	  2.78827E-002	  2.62996E-002	  2.80424E-002
  3.84000E-002	  2.24357E-002	  2.28786E-002	  2.23398E-002	  2.29830E-002
  4.16000E-002	  1.76069E-002	  1.80371E-002	  1.81738E-002	  1.80967E-002
  4.48000E-002	  1.43273E-002	  1.47478E-002	  1.32474E-002	  1.45792E-002
  4.80000E-002	  1.13800E-002	  1.13654E-002	  1.19265E-002	  1.25382E-002
  5.12000E-002	  9.83690E-003	  1.00536E-002	  1.00331E-002	  1.02117E-002
  5.76000E-002	  6.75804E-003	  6.94206E-003	  6.38501E-003	  6.81905E-003
  6.40000E-002	  4.48116E-003	  4.66200E-003	  5.40143E-003	  5.24930E-003
  7.04000E-002	  3.69510E-003	  3.92057E-003	  3.48058E-003	  3.43274E-003
  7.68000E-002	  2.00748E-003	  2.27326E-003	  2.86804E-003	  2.28881E-003
  8.32000E-002	  1.94021E-003	  2.17143E-003	  1.54787E-003	  1.73975E-003
  8.96000E-002	  1.15014E-003	  1.37085E-003	  2.05479E-003	  1.59424E-003
  9.60000E-002	  8.02636E-004	  1.39208E-003	  8.66529E-004	  7.55087E-004
  1.02400E-001	  8.57371E-004	  6.55946E-004	  1.54233E-003	  4.74177E-004
  1.15200E-001	  1.01366E-003	  7.58346E-004	  1.27617E-003	  6.28200E-004
  1.28000E-001	  2.01592E-004	 -7.99323E-005	  3.49414E-004	  5.69185E-004
  1.40800E-001	  1.87764E-004	  2.27591E-004	  5.87038E-004	  5.40976E-004
  1.53600E-001	  3.60363E-004	  4.05232E-004	  2.99633E-004	  5.55573E-004
  1.66400E-001	  1.83890E-004	  5.73895E-005	  2.23463E-004	  6.51432E-006
  1.79200E-001	  3.67183E-004	  5.14947E-004	  3.20843E-004	  1.05415E-004
  1.92000E-001	  1.92259E-004	  4.75776E-004	  1.34048E-004	  7.77052E-004
  2.04800E-001	  3.60202E-004	  2.52868E-004	  3.77329E-004	  4.46343E-004
  2.30400E-001	  1.97085E-004	  5.88945E-005	  1.32253E-004	  1.03921E-005
  2.56000E-001	 -3.50258E-005	  1.21622E-004	  6.69463E-005	  1.02300E-004
  2.81600E-001	 -2.79819E-005	  1.52869E-004	  2.36498E-004	  1.53903E-004
  3.07200E-001	  1.31212E-004	  2.17694E-004	  2.70899E-004	  3.62470E-004
  3.32800E-001	  1.82303E-005	 -1.05499E-004	 -1.69597E-004	 -1.50159E-005
  3.58400E-001	  2.54805E-004	  3.14294E-005	  1.73861E-004	  7.53106E-005
  3.84000E-001	  3.92774E-004	  2.23323E-004	  1.32957E-004	  5.43601E-004
  4.09600E-001	  3.03410E-004	 -1.52392E-004	  4.68473E-004	  5.84593E-004
  4.60800E-001	  3.34263E-004	  4.51042E-004	  6.34311E-004	 -2.89599E-005
  5.12000E-001	  7.68197E-005	 -4.93648E-005	  3.04137E-004	  1.54586E-004
  5.63200E-001	  1.27825E-004	  1.55492E-004	  9.08479E-004	  2.32374E-004
  6.14400E-001	  2.81704E-004	  2.15207E-004	  1.99036E-004	 -2.11931E-005
  6.65600E-001	  4.68755E-005	  9.98630E-005	 -4.39915E-004	  3.90574E-004
  7.16800E-001	  1.86637E-004	 -3.87330E-005	 -1.78508E-004	  1.47250E-004
  7.68000E-001	 -4.16796E-005	 -1.44989E-004	  1.89581E-004	 -7.55095E-006
  8.19200E-001	 -1.17319E-004	 -1.39755E-004	 -6.72646E-005	 -2.08727E-005
  9.21600E-001	 -1.11408E-004	 -2.59710E-004	 -1.56070E-004	 -1.19302E-006
  1.02400E+000	  2.93112E-005	  1.49413E-004	  8.33044E-005	 -1.62747E-004
  1.12640E+000	 -5.72642E-005	 -9.26760E-005	  1.17677E-005	 -6.83529E-005
  1.22880E+000	 -1.91999E-004	 -2.94893E-004	 -3.02952E-005	 -1.16563E-004
  1.33120E+000	 -1.14177E-004	 -1.32235E-004	 -2.01269E-004	 -2.74624E-005
  1.43360E+000	 -1.25327E-004	 -2.00240E-004	 -2.79173E-004	  6.23783E-005
  1.53600E+000	 -1.17376E-004	 -2.69291E-004	  2.16990E-005	 -2.39069E-004
  1.63840E+000	 -3.32826E-005	 -8.08445E-005	  1.39068E-005	  8.08879E-005
  1.84320E+000	 -5.02060E-006	 -2.48284E-005	 -8.75624E-006	  2.03533E-005
  2.04800E+000	 -1.04141E-004	 -1.41500E-004	  5.11034E-005	 -1.60499E-004
  2.25280E+000	 -8.58506E-005	 -6.30890E-005	 -1.06595E-004	  1.64332E-005
  2.45760E+000	 -1.01530E-006	 -3.02907E-005	 -1.83459E-004	  5.78844E-005
  2.66240E+000	  1.23833E-005	  1.08273E-004	 -5.28208E-006	 -1.24468E-004
  2.86720E+000	  5.85843E-005	  1.17710E-004	  5.69716E-005	  8.10164E-005
  3.07200E+000	 -6.17772E-005	 -7.78103E-005	 -1.69790E-004	  4.32038E-005
  3.27680E+000	 -8.50456E-005	 -1.61674E-004	 -7.79016E-005	  1.26172E-005
  3.68640E+000	 -1.83567E-004	 -1.95342E-004	  8.24599E-006	 -7.72357E-005
  4.09600E+000	 -9.18333E-005	 -7.24815E-005	 -1.06070E-004	 -1.04914E-004
  4.50560E+000	  4.04059E-005	  1.48454E-005	  2.57434E-005	  7.39146E-005
  4.91520E+000	  1.11070E-004	 -7.02361E-005	  4.95612E-005	  1.02258E-004
  5.32480E+000	  2.13805E-005	 -7.79166E-006	  1.28019E-004	 -3.96404E-005
  5.73440E+000	 -9.55694E-005	 -1.12092E-004	 -9.37096E-005	 -1.42487E-004
  6.14400E+000	 -1.08806E-004	 -4.73034E-005	 -6.33405E-005	 -1.08644E-004
  6.55360E+000	 -5.68062E-005	 -7.95792E-005	 -5.90197E-006	 -8.97785E-005
  7.37280E+000	  4.55230E-005	  1.61355E-005	  3.19758E-005	  1.14217E-004
  8.19200E+000	  8.60923E-006	 -8.18971E-005	 -3.88157E-005	  2.06847E-005
  9.01120E+000	 -3.35502E-005	 -1.35671E-005	 -5.57875E-005	 -9.10108E-005
  9.83040E+000	 -1.36132E-004	 -1.54897E-004	 -1.73527E-004	 -1.06597E-004
  1.06496E+001	 -1.03476E-004	 -3.46230E-005	 -1.73162E-004	 -1.44215E-004
  1.14688E+001	  2.24164E-005	 -2.38386E-005	 -3.86405E-005	  8.22972E-005
  1.22880E+001	  1.05995E-004	  5.78461E-005	  8.50125E-005	  7.41461E-005
  1.31072E+001	  1.34893E-005	  1.52014E-005	  5.04684E-006	  3.68046E-006
  1.47456E+001	 -3.27925E-005	 -2.66106E-005	 -6.53723E-005	 -7.72689E-006
  1.63840E+001	 -5.92432E-005	  2.09490E-006	 -5.95621E-005	 -5.30450E-005
  1.80224E+001	 -1.21233E-005	  6.10969E-006	  4.56413E-005	 -5.37068E-005
  1.96608E+001	  6.03556E-005	  1.11299E-004	  6.65049E-005	  1.04902E-004
  2.12992E+001	 -3.85309E-005	 -3.48779E-005	 -2.62579E-005	 -3.12789E-005
  2.29376E+001	  2.01539E-007	 -1.83276E-005	 -4.80571E-006	 -7.08724E-005
  2.45760E+001	 -9.18390E-006	 -5.49272E-005	 -3.47585E-005	  2.92701E-005
  2.62144E+001	  5.66515E-005	  5.85195E-005	  2.44736E-005	  3.30159E-005
  2.94912E+001	  2.51896E-006	  3.60761E-005	 -1.17918E-006	  1.08912E-005
  3.27680E+001	 -1.91332E-005	 -2.26198E-005	 -1.76658E-005	  5.39510E-006
  3.60448E+001	  3.48838E-005	  2.93094E-005	  4.31272E-005	  5.39952E-005
  3.93216E+001	  2.31190E-006	  4.29176E-005	 -3.64136E-006	 -7.79832E-006
  4.25984E+001	 -3.43316E-005	 -4.69961E-005	 -1.10329E-005	 -4.88876E-005
  4.58752E+001	  2.26712E-005	  5.03432E-005	  2.63373E-005	  8.87064E-006
  4.91520E+001	 -1.24224E-005	  9.36209E-008	 -1.38737E-005	  1.84570E-005
  5.24288E+001	 -2.68655E-005	  6.28846E-008	  2.00734E-005	 -3.54272E-005
  5.89824E+001	 -3.36094E-005	 -2.13940E-005	 -2.94319E-005	 -2.16850E-005
  6.55360E+001	  1.57255E-005	 -3.78892E-006	  1.12108E-005	 -1.68186E-005
  7.20896E+001	 -6.27870E-006	 -4.93620E-006	 -1.89353E-005	  1.30001E-005
  7.86432E+001	  2.51577E-005	  4.73407E-005	  1.43116E-005	 -1.72247E-006
  8.51968E+001	  3.57204E-005	  5.32668E-005	  2.03516E-005	  9.48892E-006
  9.17504E+001	 -1.90357E-005	 -2.34000E-005	 -3.93390E-005	  1.37553E-005
  9.83040E+001	 -6.35555E-006	  2.00269E-005	 -1.93750E-005	 -1.79563E-005
  1.04858E+002	  1.81496E-005	  4.44907E-005	 -4.69833E-007	  1.37350E-005
  1.17965E+002	 -7.55470E-006	 -7.47460E-006	 -1.22384E-006	 -8.09234E-006
  1.31072E+002	 -6.55981E-006	  1.45350E-005	  1.23593E-005	 -5.55580E-006
  1.44179E+002	  2.59163E-005	  3.73483E-005	  2.33706E-005	  1.25219E-005
  1.57286E+002	 -6.42079E-006	 -3.94738E-006	 -4.54547E-006	 -1.51125E-005
  1.70394E+002	 -1.40654E-005	 -1.91137E-005	  5.59738E-006	 -2.08119E-005
  1.83501E+002	  1.58404E-005	  1.62402E-006	  6.69400E-006	  1.24305E-005
  1.96608E+002	 -1.23107E-005	 -3.92432E-005	 -6.92770E-006	  1.92735E-005
  2.09715E+002	 -1.27933E-005	 -2.19529E-005	 -6.63369E-006	 -8.64511E-006
  2.35930E+002	  1.21927E-005	  2.29920E-005	  2.00267E-005	  1.13098E-005
  2.62144E+002	 -1.94183E-005	 -1.64556E-005	 -2.88093E-005	 -7.76310E-006
  2.88358E+002	  8.18560E-006	 -1.70685E-006	  1.81473E-005	  2.73495E-006
  3.14573E+002	 -7.85153E-006	 -1.18213E-005	 -1.70964E-005	  6.25417E-006
  3.40787E+002	  3.51674E-006	 -2.41437E-006	 -4.72676E-006	  3.76724E-006
  3.67002E+002	  2.32957E-005	  1.93167E-005	  1.72019E-005	  6.25230E-006
  3.93216E+002	 -4.61469E-006	 -6.52634E-006	 -3.23061E-006	  9.11394E-006
  4.19430E+002	 -2.63432E-006	 -6.58530E-006	  2.85406E-006	  8.64475E-006
  4.71859E+002	  9.88717E-006	  1.48297E-005	  1.64620E-006	  1.42990E-005
  5.24288E+002	 -4.88779E-006	 -3.72378E-006	  8.88758E-006	 -9.95921E-006
  5.76717E+002	 -5.45248E-006	 -8.74126E-006	 -1.12798E-005	 -4.83175E-006
  6.29146E+002	  4.69438E-006	  5.15947E-006	  9.99242E-006	  1.09187E-005
  6.81574E+002	 -1.04946E-005	 -1.43570E-005	 -8.84624E-006	 -1.18868E-005
  7.34003E+002	 -2.00134E-006	  1.60623E-006	  4.09804E-006	  3.03810E-006
  7.86432E+002	  3.90459E-006	  1.00968E-006	  6.35694E-006	 -1.42815E-007
  8.38861E+002	 -1.13570E-006	 -4.88266E-006	 -2.22888E-006	  7.79759E-006
  9.43718E+002	  1.86347E-006	  1.75865E-006	 -1.52744E-006	  7.65383E-007
  1.04858E+003	 -5.48132E-006	 -3.96265E-006	 -8.89130E-006	  4.28585E-006
  1.15343E+003	  2.90295E-006	  3.53955E-006	 -6.58709E-006	  2.97970E-006
  1.25829E+003	  2.64387E-006	  5.63451E-006	 -3.11701E-006	  7.87236E-006
  1.36315E+003	  3.56699E-006	  7.06769E-006	  1.30973E-006	  1.49418E-005
  1.46801E+003	 -1.19605E-006	 -3.74628E-006	 -5.62768E-007	  1.40843E-006
  1.57286E+003	 -6.25105E-006	 -8.02144E-006	 -5.29395E-006	 -3.54525E-006
  1.67772E+003	 -4.92904E-007	  8.56644E-007	  6.17113E-006	 -6.66708E-007
  1.88744E+003	  3.76127E-007	  4.89306E-006	 -1.61810E-006	 -8.73648E-007
  2.09715E+003	 -2.34360E-006	  3.77290E-007	 -6.43717E-006	  1.53099E-006
  2.30687E+003	  2.02611E-006	  1.34555E-006	  2.59952E-006	  7.07755E-006
  2.51658E+003	  1.12278E-006	 -1.74138E-006	 -5.06980E-006	  4.38387E-006
  2.72630E+003	 -2.27317E-006	 -4.59898E-006	 -9.63596E-006	  2.58715E-006
  2.93601E+003	 -1.22336E-006	  8.87374E-008	 -2.53627E-006	  5.47889E-007
  3.14573E+003	  9.52462E-006	  1.13555E-005	  5.47435E-006	  9.95218E-006
  3.35544E+003	  5.03816E-006	  6.27955E-006	 -9.48710E-007	  5.26569E-006
  3.77487E+003	 -7.28366E-007	  3.67440E-006	  2.63584E-006	  2.61667E-006
  4.19430E+003	  2.01123E-006	  2.46237E-006	  3.09346E-006	 -9.53048E-007
  4.61373E+003	  3.32736E-006	  4.84380E-006	  7.99259E-006	  1.55738E-006
  5.03317E+003	  2.67903E-006	  4.05964E-006	 -1.29236E-006	  2.28893E-006
  5.45260E+003	  1.68146E-006	  7.90785E-007	  2.19025E-006	  1.10633E-006
  5.87203E+003	 -2.52504E-006	  1.14685E-006	 -3.09098E-006	  3.79253E-006
  6.29146E+003	  1.79214E-006	 -1.78477E-006	 -1.11195E-006	  1.06238E-006
  6.71089E+003	  1.82005E-006	  4.29192E-006	 -1.80051E-006	  3.73768E-006
  7.54975E+003	  3.57193E-007	  3.91767E-006	 -1.47251E-006	 -7.70636E-007
  8.38861E+003	 -2.81035E-006	 -2.90963E-006	  7.14003E-007	 -2.97045E-006
  9.22747E+003	  2.08387E-006	 -1.57781E-007	  2.41117E-006	  1.87211E-006
  1.00663E+004	 -9.48640E-007	 -4.92155E-007	  5.88327E-008	  6.34138E-007
  1.09052E+004	 -5.06958E-006	 -3.61807E-006	 -3.03102E-006	 -4.12930E-006
  1.17441E+004	 -3.42137E-006	 -4.12662E-006	 -5.21596E-006	 -2.65337E-006

"Count Rate"
       0.27344	     113.14744	     137.78270	     113.14744	     137.78270
       0.54688	     114.44172	     136.52498	     114.44172	     136.52498
       0.82031	     112.97560	     137.74248	     112.97560	     137.74248
       1.09375	     113.31927	     136.42992	     113.31927	     136.42992
       1.36719	     114.77077	     137.70958	     114.77077	     137.70958
       1.64063	     114.52216	     136.95274	     114.52216	     136.95274
       1.91406	     113.14013	     135.34038	     113.14013	     135.34038
       2.18750	     113.95545	     136.22517	     113.95545	     136.22517
       2.46094	     114.13095	     135.89978	     114.13095	     135.89978
       2.73438	     114.41248	     135.72063	     114.41248	     135.72063
       3.00781	     115.16930	     136.18130	     115.16930	     136.18130
       3.28125	     112.88054	     135.32941	     112.88054	     135.32941
       3.55469	     114.09805	     136.98199	     114.09805	     136.98199
       3.82813	     112.94635	     136.78822	     112.94635	     136.78822
       4.10156	     114.29913	     136.15936	     114.29913	     136.15936
       4.37500	     114.91337	     137.65839	     114.91337	     137.65839
       4.64844	     113.67393	     137.49751	     113.67393	     137.49751
       4.92188	     114.51485	     136.52864	     114.51485	     136.52864
       5.19531	     115.09983	     136.76994	     115.09983	     136.76994
       5.46875	     113.79458	     136.93446	     113.79458	     136.93446
       5.74219	     113.82748	     135.62190	     113.82748	     135.62190
       6.01563	     115.30092	     137.79367	     115.30092	     137.79367
       6.28906	     113.10722	     138.08250	     113.10722	     138.08250
       6.56250	     113.30099	     136.27271	     113.30099	     136.27271
       6.83594	     113.68490	     136.57982	     113.68490	     136.57982
       7.10938	     113.84576	     136.50304	     113.84576	     136.50304
       7.38281	     114.36860	     137.51945	     114.36860	     137.51945
       7.65625	     113.37047	     138.07884	     113.37047	     138.07884
       7.92969	     113.21690	     135.53415	     113.21690	     135.53415
       8.20313	     113.96642	     137.19040	     113.96642	     137.19040
       8.47656	     113.88233	     137.23427	     113.88233	     137.23427
       8.75000	     113.60812	     136.81017	     113.60812	     136.81017
       9.02344	     113.65199	     136.00580	     113.65199	     136.00580
       9.29688	     114.41978	     137.90335	     114.41978	     137.90335
       9.57031	     115.97731	     138.15562	     115.97731	     138.15562
       9.84375	     115.33017	     138.51393	     115.33017	     138.51393
      10.11719	     113.54230	     136.36044	     113.54230	     136.36044
      10.39063	     111.97746	     134.94551	     111.97746	     134.94551
      10.66406	     113.98104	     136.84673	     113.98104	     136.84673
      10.93750	     114.25160	     137.59258	     114.25160	     137.59258
      11.21094	     113.07797	     137.01855	     113.07797	     137.01855
      11.48438	     113.95545	     137.16115	     113.95545	     137.16115
      11.75781	     113.67027	     137.08437	     113.67027	     137.08437
      12.03125	     112.68311	     135.24167	     112.68311	     135.24167
      12.30469	     113.76899	     135.46469	     113.76899	     135.46469
      12.57813	     113.85674	     134.93820	     113.85674	     134.93820
      12.85156	     114.10535	     136.68219	     114.10535	     136.68219
      13.12500	     113.05238	     137.05878	     113.05238	     137.05878
      13.39844	     112.37598	     135.80472	     112.37598	     135.80472
      13.67188	     115.11811	     136.89059	     115.11811	     136.89059
      13.94531	     114.45634	     136.97469	     114.45634	     136.97469
      14.21875	     114.86584	     135.61093	     114.86584	     135.61093
      14.49219	     115.28264	     138.45543	     115.28264	     138.45543
      14.76563	     113.72877	     136.21786	     113.72877	     136.21786
      15.03906	     112.86591	     135.05519	     112.86591	     135.05519
      15.31250	     111.87144	     134.20331	     111.87144	     134.20331
      15.58594	     113.19862	     136.03140	     113.19862	     136.03140
      15.85938	     115.22049	     138.01303	     115.22049	     138.01303
      16.13281	     115.38501	     138.91611	     115.38501	     138.91611
      16.40625	     114.29548	     136.77725	     114.29548	     136.77725
      16.67969	     113.18400	     136.91985	     113.18400	     136.91985
      16.95313	     112.70139	     136.11549	     112.70139	     136.11549
      17.22656	     114.52947	     138.34941	     114.52947	     138.34941
      17.50000	     115.04499	     139.18301	     115.04499	     139.18301
      17.77344	     114.66475	     136.70778	     114.66475	     136.70778
      18.04688	     112.81838	     136.18495	     112.81838	     136.18495
      18.32031	     113.23885	     135.73524	     113.23885	     135.73524
      18.59375	     115.76891	     138.86127	     115.76891	     138.86127
      18.86719	     112.41255	     135.33673	     112.41255	     135.33673
      19.14063	     114.05051	     136.31657	     114.05051	     136.31657
      19.41406	     113.74339	     136.14108	     113.74339	     136.14108
      19.68750	     114.07976	     136.93446	     114.07976	     136.93446
      19.96094	     112.59901	     136.39336	     112.59901	     136.39336
      20.23438	     115.25340	     136.87231	     115.25340	     136.87231
      20.50781	     113.14378	     136.77359	     113.14378	     136.77359
      20.78125	     113.70318	     136.52132	     113.70318	     136.52132
      21.05469	     113.22056	     137.53409	     113.22056	     137.53409
      21.32813	     113.26443	     136.91618	     113.26443	     136.91618
      21.60156	     113.24615	     137.57065	     113.24615	     137.57065
      21.87500	     114.04320	     136.54326	     114.04320	     136.54326
      22.14844	     113.62640	     138.45543	     113.62640	     138.45543
      22.42188	     113.56059	     137.29277	     113.56059	     137.29277
      22.69531	     113.36315	     137.51579	     113.36315	     137.51579
      22.96875	     114.56238	     138.24704	     114.56238	     138.24704
      23.24219	     113.56424	     136.50670	     113.56424	     136.50670
      23.51563	     112.52223	     135.46103	     112.52223	     135.46103
      23.78906	     114.13095	     139.51572	     114.13095	     139.51572
      24.06250	     113.23518	     136.28368	     113.23518	     136.28368
      24.33594	     113.88599	     135.65482	     113.88599	     135.65482
      24.60938	     113.37412	     136.98932	     113.37412	     136.98932
      24.88281	     114.24429	     136.91618	     114.24429	     136.91618
      25.15625	     114.86218	     137.46095	     114.86218	     137.46095
      25.42969	     112.93538	     134.81024	     112.93538	     134.81024
      25.70313	     113.40703	     135.81934	     113.40703	     135.81934
      25.97656	     114.68668	     138.06422	     114.68668	     138.06422
      26.25000	     115.31920	     137.64742	     115.31920	     137.64742
      26.52344	     114.60259	     138.33478	     114.60259	     138.33478
      26.79688	     114.84390	     137.06975	     114.84390	     137.06975
      27.07031	     114.85853	     135.40253	     114.85853	     135.40253
      27.34375	     113.10722	     136.03871	     113.10722	     136.03871
      27.61719	     113.21690	     136.18861	     113.21690	     136.18861
      27.89063	     112.15296	     135.65482	     112.15296	     135.65482
      28.16406	     113.57887	     136.94543	     113.57887	     136.94543
      28.43750	     113.59715	     137.22331	     113.59715	     137.22331
      28.71094	     113.56424	     136.44089	     113.56424	     136.44089
      28.98438	     115.31920	     138.08617	     115.31920	     138.08617
      29.25781	     115.39964	     136.26540	     115.39964	     136.26540
      29.53125	     112.20049	     135.47931	     112.20049	     135.47931
      29.80469	     114.68668	     139.51572	     114.68668	     139.51572
      30.07813	     113.50209	     136.36044	     113.50209	     136.36044
      30.35156	     114.07976	     137.36589	     114.07976	     137.36589
      30.62500	     115.19489	     138.33478	     115.19489	     138.33478
      30.89844	     114.15289	     138.05325	     114.15289	     138.05325
      31.17188	     113.97739	     136.78822	     113.97739	     136.78822
      31.44531	     114.71228	     137.85217	     114.71228	     137.85217
      31.71875	     113.72511	     137.42439	     113.72511	     137.42439
      31.99219	     113.81652	     137.93260	     113.81652	     137.93260
      32.26563	     114.17482	     138.19585	     114.17482	     138.19585
      32.53906	     114.02857	     137.42075	     114.02857	     137.42075
      32.81250	     112.97560	     136.78822	     112.97560	     136.78822
      33.08594	     115.28264	     137.58527	     115.28264	     137.58527
      33.35938	     113.92255	     139.51938	     113.92255	     139.51938
      33.63281	     115.29726	     138.09714	     115.29726	     138.09714
      33.90625	     113.39606	     137.49387	     113.39606	     137.49387
      34.17969	     114.69400	     137.77539	     114.69400	     137.77539
      34.45313	     116.45261	     137.54504	     116.45261	     137.54504
      34.72656	     114.19676	     137.54140	     114.19676	     137.54140
      35.00000	     113.09625	     137.11728	     113.09625	     137.11728
      35.27344	     114.18579	     135.88515	     114.18579	     135.88515
      35.54688	     114.24063	     138.72964	     114.24063	     138.72964
      35.82031	     113.07797	     137.86313	     113.07797	     137.86313
      36.09375	     115.63729	     137.81195	     115.63729	     137.81195
      36.36719	     113.45821	     138.59438	     113.45821	     138.59438
      36.64063	     113.69952	     138.27628	     113.69952	     138.27628
      36.91406	     114.33935	     137.79367	     114.33935	     137.79367
      37.18750	     113.76533	     137.11728	     113.76533	     137.11728
      37.46094	     113.74339	     135.77911	     113.74339	     135.77911
      37.73438	     114.75249	     137.49020	     114.75249	     137.49020
      38.00781	     113.24615	     135.34038	     113.24615	     135.34038
      38.28125	     114.26257	     138.16295	     114.26257	     138.16295
      38.55469	     113.91889	     137.27084	     113.91889	     137.27084
      38.82813	     115.19855	     137.37321	     115.19855	     137.37321
      39.10156	     114.59162	     137.95088	     114.59162	     137.95088
      39.37500	     114.07976	     138.30188	     114.07976	     138.30188
      39.64844	     113.54230	     137.69861	     113.54230	     137.69861
      39.92188	     113.23518	     138.91977	     113.23518	     138.91977
      40.19531	     114.42344	     136.55423	     114.42344	     136.55423
      40.46875	     112.37965	     137.06975	     112.37965	     137.06975
      40.74219	     113.79823	     137.09900	     113.79823	     137.09900
      41.01563	     112.93538	     136.96007	     112.93538	     136.96007
      41.28906	     113.56059	     136.67488	     113.56059	     136.67488
      41.56250	     113.40337	     138.35672	     113.40337	     138.35672
      41.83594	     113.46187	     137.47559	     113.46187	     137.47559
      42.10938	     113.42531	     136.56154	     113.42531	     136.56154
      42.38281	     113.49477	     137.73517	     113.49477	     137.73517
      42.65625	     114.21138	     137.84120	     114.21138	     137.84120
      42.92969	     113.31927	     135.99118	     113.31927	     135.99118
      43.20313	     114.39785	     137.95454	     114.39785	     137.95454
      43.47656	     112.81838	     135.68771	     112.81838	     135.68771
      43.75000	     114.59162	     137.23793	     114.59162	     137.23793
      44.02344	     112.95366	     135.99849	     112.95366	     135.99849
      44.29688	     113.04507	     136.13742	     113.04507	     136.13742
      44.57031	     113.58252	     135.96193	     113.58252	     135.96193
      44.84375	     114.95724	     137.76808	     114.95724	     137.76808
      45.11719	     114.34666	     136.51767	     114.34666	     136.51767
      45.39063	     115.00843	     136.47014	     115.00843	     136.47014
      45.66406	     112.98656	     136.31657	     112.98656	     136.31657
      45.93750	     113.65199	     137.20868	     113.65199	     137.20868
      46.21094	     113.07432	     136.49573	     113.07432	     136.49573
      46.48438	     113.50574	     137.49751	     113.50574	     137.49751
      46.75781	     114.23332	     137.45731	     114.23332	     137.45731
      47.03125	     114.16751	     136.37141	     114.16751	     136.37141
      47.30469	     114.21504	     136.90887	     114.21504	     136.90887
      47.57813	     113.37412	     136.39702	     113.37412	     136.39702
      47.85156	     112.61729	     136.76263	     112.61729	     136.76263
      48.12500	     114.11633	     138.13734	     114.11633	     138.13734
      48.39844	     113.04507	     135.87784	     113.04507	     135.87784
      48.67188	     113.18765	     136.03871	     113.18765	     136.03871
      48.94531	     114.29548	     138.47371	     114.29548	     138.47371
      49.21875	     114.87681	     137.08437	     114.87681	     137.08437
      49.49219	     114.50388	     137.20868	     114.50388	     137.20868
      49.76563	     113.69221	     136.80650	     113.69221	     136.80650
      50.03906	     113.24615	     137.35127	     113.24615	     137.35127
      50.31250	     114.47829	     137.50484	     114.47829	     137.50484
      50.58594	     113.71049	     136.53595	     113.71049	     136.53595
      50.85938	     113.19131	     135.25995	     113.19131	     135.25995
      51.13281	     113.75436	     134.99670	     113.75436	     134.99670
      51.40625	     112.91710	     137.49020	     112.91710	     137.49020
      51.67969	     114.02857	     137.47923	     114.02857	     137.47923
      51.95313	     112.97560	     136.02774	     112.97560	     136.02774
      52.22656	     114.68668	     138.56512	     114.68668	     138.56512
      52.50000	     114.77444	     135.50856	     114.77444	     135.50856
      52.77344	     113.47649	     137.98013	     113.47649	     137.98013
      53.04688	     114.72691	     137.64377	     114.72691	     137.64377
      53.32031	     113.31562	     135.83397	     113.31562	     135.83397
      53.59375	     114.02492	     137.01855	     114.02492	     137.01855
      53.86719	     112.82570	     136.66757	     112.82570	     136.66757
      54.14063	     114.39053	     137.23793	     114.39053	     137.23793
      54.41406	     116.04312	     137.85948	     116.04312	     137.85948
      54.68750	     113.69221	     135.67674	     113.69221	     135.67674
      54.96094	     115.33382	     139.10623	     115.33382	     139.10623
      55.23438	     113.86771	     135.77180	     113.86771	     135.77180
      55.50781	     113.21325	     136.35313	     113.21325	     136.35313
      55.78125	     113.20228	     137.08072	     113.20228	     137.08072
      56.05469	     112.09446	     136.56154	     112.09446	     136.56154
      56.32813	     112.36868	     137.85217	     112.36868	     137.85217
      56.60156	     113.17303	     135.89978	     113.17303	     135.89978
      56.87500	     113.48380	     135.89978	     113.48380	     135.89978
      57.14844	     112.95366	     136.72607	     112.95366	     136.72607
      57.42188	     111.92993	     135.57803	     111.92993	     135.57803
      57.69531	     114.14557	     136.10817	     114.14557	     136.10817
      57.96875	     114.66840	     138.10445	     114.66840	     138.10445
      58.24219	     113.58618	     137.46095	     113.58618	     137.46095
      58.51563	     116.89136	     138.54684	     116.89136	     138.54684
      58.78906	     114.34300	     136.14839	     114.34300	     136.14839
      59.06250	     114.05051	     137.53043	     114.05051	     137.53043
      59.33594	     116.04678	     137.35493	     116.04678	     137.35493
      59.60938	     113.99933	     137.10265	     113.99933	     137.10265
      59.88281	     112.93172	     135.28554	     112.93172	     135.28554
      60.15625	     114.32838	     136.23248	     114.32838	     136.23248
      60.42969	     113.78727	     137.22331	     113.78727	     137.22331
      60.70313	     112.91710	     136.79189	     112.91710	     136.79189
      60.97656	     112.65385	     136.05333	     112.65385	     136.05333
      61.25000	     113.72877	     136.36044	     113.72877	     136.36044
      61.52344	     113.97008	     135.03691	     113.97008	     135.03691
      61.79688	     115.02306	     138.87955	     115.02306	     138.87955
      62.07031	     112.46008	     135.78644	     112.46008	     135.78644
      62.34375	     113.56059	     135.62190	     113.56059	     135.62190
      62.61719	     113.18034	     136.15205	     113.18034	     136.15205
      62.89063	     114.31010	     136.77725	     114.31010	     136.77725
      63.16406	     114.06514	     135.92171	     114.06514	     135.92171
      63.43750	     115.12543	     138.33478	     115.12543	     138.33478
      63.71094	     113.80920	     137.86679	     113.80920	     137.86679
      63.98438	     112.53320	     136.31293	     112.53320	     136.31293
      64.25781	     113.92986	     137.80829	     113.92986	     137.80829
      64.53125	     114.02492	     135.89246	     114.02492	     135.89246
      64.80469	     112.97194	     135.68407	     112.97194	     135.68407
      65.07813	     113.84211	     137.01491	     113.84211	     137.01491
      65.35156	     113.45090	     135.91074	     113.45090	     135.91074
      65.62500	     114.29548	     137.45731	     114.29548	     137.45731
      65.89844	     112.25533	     134.96014	     112.25533	     134.96014
      66.17188	     113.48746	     137.26352	     113.48746	     137.26352
      66.44531	     113.62640	     137.18309	     113.62640	     137.18309
      66.71875	     112.95732	     135.93999	     112.95732	     135.93999
      66.99219	     114.25160	     136.98932	     114.25160	     136.98932
      67.26563	     114.47829	     136.10452	     114.47829	     136.10452
      67.53906	     113.81652	     136.62004	     113.81652	     136.62004
      67.81250	     113.44724	     137.75711	     113.44724	     137.75711
      68.08594	     113.58252	     135.27092	     113.58252	     135.27092
      68.35938	     113.69952	     135.32941	     113.69952	     135.32941
      68.63281	     113.34122	     135.18681	     113.34122	     135.18681
      68.90625	     114.90971	     137.50848	     114.90971	     137.50848
      69.17969	     113.74705	     137.49751	     113.74705	     137.49751
      69.45313	     114.67937	     137.34030	     114.67937	     137.34030

Monitor Diode	1628906.29
"StandardDeviation"
  3.12500E-006	  2.18508E-002
  6.25000E-006	  2.18506E-002
  9.37500E-006	  2.18506E-002
  1.25000E-005	  2.18508E-002
  1.56250E-005	  2.18507E-002
  1.87500E-005	  2.18505E-002
  2.18750E-005	  2.18508E-002
  2.50000E-005	  2.18508E-002
  2.81250E-005	  2.18507E-002
  3.12500E-005	  2.16419E-002
  3.43750E-005	  2.16283E-002
  3.75000E-005	  2.18506E-002
  4.06250E-005	  2.16734E-002
  4.37500E-005	  2.15334E-002
  4.68750E-005	  2.18103E-002
  5.00000E-005	  1.54425E-002
  5.62500E-005	  1.53825E-002
  6.25000E-005	  1.53266E-002
  6.87500E-005	  1.53782E-002
  7.50000E-005	  1.52837E-002
  8.12500E-005	  1.53816E-002
  8.75000E-005	  1.54552E-002
  9.37500E-005	  1.54508E-002
  1.00000E-004	  1.08662E-002
  1.12500E-004	  1.08737E-002
  1.25000E-004	  1.08487E-002
  1.37500E-004	  1.08851E-002
  1.50000E-004	  1.08455E-002
  1.62500E-004	  1.08384E-002
  1.75000E-004	  1.09076E-002
  1.87500E-004	  1.08675E-002
  2.00000E-004	  7.68866E-003
  2.25000E-004	  7.67798E-003
  2.50000E-004	  7.66550E-003
  2.75000E-004	  7.67842E-003
  3.00000E-004	  7.67660E-003
  3.25000E-004	  7.65069E-003
  3.50000E-004	  7.68235E-003
  3.75000E-004	  7.68056E-003
  4.00000E-004	  5.44857E-003
  4.50000E-004	  5.42549E-003
  5.00000E-004	  5.42257E-003
  5.50000E-004	  5.42165E-003
  6.00000E-004	  5.44311E-003
  6.50000E-004	  5.42076E-003
  7.00000E-004	  5.42677E-003
  7.50000E-004	  5.41514E-003
  8.00000E-004	  3.84798E-003
  9.00000E-004	  3.84899E-003
  1.00000E-003	  3.84139E-003
  1.10000E-003	  3.84080E-003
  1.20000E-003	  3.82923E-003
  1.30000E-003	  3.83292E-003
  1.40000E-003	  3.82917E-003
  1.50000E-003	  3.82189E-003
  1.60000E-003	  2.72704E-003
  1.80000E-003	  2.71989E-003
  2.00000E-003	  2.71670E-003
  2.20000E-003	  2.71139E-003
  2.40000E-003	  2.70849E-003
  2.60000E-003	  2.70337E-003
  2.80000E-003	  2.69856E-003
  3.00000E-003	  2.69316E-003
  3.20000E-003	  1.93040E-003
  3.60000E-003	  1.92309E-003
  4.00000E-003	  1.91793E-003
  4.40000E-003	  1.91262E-003
  4.80000E-003	  1.90678E-003
  5.20000E-003	  1.90046E-003
  5.60000E-003	  1.89440E-003
  6.00000E-003	  1.89056E-003
  6.40000E-003	  1.36781E-003
  7.20000E-003	  1.35927E-003
  8.00000E-003	  1.35193E-003
  8.80000E-003	  1.34542E-003
  9.60000E-003	  1.33829E-003
  1.04000E-002	  1.33228E-003
  1.12000E-002	  1.32619E-003
  1.20000E-002	  1.32060E-003
  1.28000E-002	  9.69198E-004
  1.44000E-002	  9.61057E-004
  1.60000E-002	  9.53276E-004
  1.76000E-002	  9.47379E-004
  1.92000E-002	  9.41813E-004
  2.08000E-002	  9.36548E-004
  2.24000E-002	  9.32008E-004
  2.40000E-002	  9.28155E-004
  2.56000E-002	  6.94234E-004
  2.88000E-002	  6.88778E-004
  3.20000E-002	  6.84453E-004
  3.52000E-002	  6.81175E-004
  3.84000E-002	  6.78358E-004
  4.16000E-002	  6.75932E-004
  4.48000E-002	  6.74076E-004
  4.80000E-002	  6.72555E-004
  5.12000E-002	  5.18049E-004
  5.76000E-002	  5.16584E-004
  6.40000E-002	  5.15205E-004
  7.04000E-002	  5.14737E-004
  7.68000E-002	  5.14009E-004
  8.32000E-002	  5.13890E-004
  8.96000E-002	  5.13567E-004
  9.60000E-002	  5.13344E-004
  1.02400E-001	  4.07124E-004
  1.15200E-001	  4.07078E-004
  1.28000E-001	  4.06463E-004
  1.40800E-001	  4.06463E-004
  1.53600E-001	  4.06463E-004
  1.66400E-001	  4.06463E-004
  1.79200E-001	  4.06463E-004
  1.92000E-001	  4.06463E-004
  2.04800E-001	  3.24854E-004
  2.30400E-001	  3.24854E-004
  2.56000E-001	  3.24854E-004
  2.81600E-001	  3.24854E-004
  3.07200E-001	  3.24854E-004
  3.32800E-001	  3.24854E-004
  3.58400E-001	  3.24854E-004
  3.84000E-001	  3.24854E-004
  4.09600E-001	  2.55668E-004
  4.60800E-001	  2.55668E-004
  5.12000E-001	  2.55668E-004
  5.63200E-001	  2.55668E-004
  6.14400E-001	  2.55668E-004
  6.65600E-001	  2.55668E-004
  7.16800E-001	  2.55668E-004
  7.68000E-001	  2.55668E-004
  8.19200E-001	  1.94662E-004
  9.21600E-001	  1.94662E-004
  1.02400E+000	  1.94662E-004
  1.12640E+000	  1.94662E-004
  1.22880E+000	  1.94662E-004
  1.33120E+000	  1.94662E-004
  1.43360E+000	  1.94662E-004
  1.53600E+000	  1.94662E-004
  1.63840E+000	  1.43222E-004
  1.84320E+000	  1.43222E-004
  2.04800E+000	  1.43222E-004
  2.25280E+000	  1.43222E-004
  2.45760E+000	  1.43222E-004
  2.66240E+000	  1.43222E-004
  2.86720E+000	  1.43222E-004
  3.07200E+000	  1.43222E-004
  3.27680E+000	  1.03401E-004
  3.68640E+000	  1.03401E-004
  4.09600E+000	  1.03401E-004
  4.50560E+000	  1.03401E-004
  4.91520E+000	  1.03401E-004
  5.32480E+000	  1.03401E-004
  5.73440E+000	  1.03401E-004
  6.14400E+000	  1.03401E-004
  6.55360E+000	  7.38703E-005
  7.37280E+000	  7.38703E-005
  8.19200E+000	  7.38703E-005
  9.01120E+000	  7.38703E-005
  9.83040E+000	  7.38703E-005
  1.06496E+001	  7.38703E-005
  1.14688E+001	  7.38703E-005
  1.22880E+001	  7.38703E-005
  1.31072E+001	  5.25012E-005
  1.47456E+001	  5.25012E-005
  1.63840E+001	  5.25012E-005
  1.80224E+001	  5.25012E-005
  1.96608E+001	  5.25012E-005
  2.12992E+001	  5.25012E-005
  2.29376E+001	  5.25012E-005
  2.45760E+001	  5.25012E-005
  2.62144E+001	  3.72183E-005
  2.94912E+001	  3.72183E-005
  3.27680E+001	  3.72183E-005
  3.60448E+001	  3.72183E-005
  3.93216E+001	  3.72183E-005
  4.25984E+001	  3.72183E-005
  4.58752E+001	  3.72183E-005
  4.91520E+001	  3.72183E-005
  5.24288E+001	  2.63506E-005
  5.89824E+001	  2.63506E-005
  6.55360E+001	  2.63506E-005
  7.20896E+001	  2.63506E-005
  7.86432E+001	  2.63506E-005
  8.51968E+001	  2.63506E-005
  9.17504E+001	  2.63506E-005
  9.83040E+001	  2.63506E-005
  1.04858E+002	  1.86444E-005
  1.17965E+002	  1.86444E-005
  1.31072E+002	  1.86444E-005
  1.44179E+002	  1.86444E-005
  1.57286E+002	  1.86444E-005
  1.70394E+002	  1.86444E-005
  1.83501E+002	  1.86444E-005
  1.96608E+002	  1.86444E-005
  2.09715E+002	  1.31876E-005
  2.35930E+002	  1.31876E-005
  2.62144E+002	  1.31876E-005
  2.88358E+002	  1.31876E-005
  3.14573E+002	  1.31876E-005
  3.40787E+002	  1.31876E-005
  3.67002E+002	  1.31876E-005
  3.93216E+002	  1.31876E-005
  4.19430E+002	  9.32630E-006
  4.71859E+002	  9.32630E-006
  5.24288E+002	  9.32630E-006
  5.76717E+002	  9.32630E-006
  6.29146E+002	  9.32630E-006
  6.81574E+002	  9.32630E-006
  7.34003E+002	  9.32630E-006
  7.86432E+002	  9.32630E-006
  8.38861E+002	  6.59491E-006
  9.43718E+002	  6.59491E-006
  1.04858E+003	  6.59491E-006
  1.15343E+003	  6.59491E-006
  1.25829E+003	  6.59491E-006
  1.36315E+003	  6.59491E-006
  1.46801E+003	  6.59491E-006
  1.57286E+003	  6.59491E-006
  1.67772E+003	  4.66307E-006
  1.88744E+003	  4.66307E-006
  2.09715E+003	  4.66307E-006
  2.30687E+003	  4.66307E-006
  2.51658E+003	  4.66307E-006
  2.72630E+003	  4.66307E-006
  2.93601E+003	  4.66307E-006
  3.14573E+003	  4.66307E-006
  3.35544E+003	  3.29675E-006
  3.77487E+003	  3.29675E-006
  4.19430E+003	  3.29675E-006
  4.61373E+003	  3.29675E-006
  5.03317E+003	  3.29675E-006
  5.45260E+003	  3.29675E-006
  5.87203E+003	  3.29675E-006
  6.29146E+003	  3.29675E-006
  6.71089E+003	  2.33033E-006
  7.54975E+003	  2.33033E-006
  8.38861E+003	  2.33033E-006
  9.22747E+003	  2.33033E-006
  1.00663E+004	  2.33033E-006
  1.09052E+004	  2.33033E-006
  1.17441E+004	  2.33033E-006
