ALV-7004 or ALV-7004/FAST Data
Date :	"3/27/2010"
Time :	"10:37:24 AM"
Samplename : 	"BSA 1 g/l in YCl3 8.3mM"
SampMemo(0) : 	""
SampMemo(1) : 	""
SampMemo(2) : 	""
SampMemo(3) : 	""
SampMemo(4) : 	""
SampMemo(5) : 	""
SampMemo(6) : 	""
SampMemo(7) : 	""
SampMemo(8) : 	""
SampMemo(9) : 	""
Temperature [K] :	     295.66364
Viscosity [cp]  :	       0.94305
Refractive Index:	       1.33200
Wavelength [nm] :	     632.80000
Angle [°]       :	      40.00000
Duration [s]    :	        70
Runs            :	         1
Mode            :	"C-CH0/1+1/0"
MeanCR0 [kHz]   :	      84.20878
MeanCR1 [kHz]   :	     103.08326
MeanCR2 [kHz]   :	       0.00000
MeanCR3 [kHz]   :	       0.00000

"Correlation"
  3.12500E-006	  5.84837E-001	  5.59753E-001	 -2.00000E+000	 -2.00000E+000
  6.25000E-006	  5.73748E-001	  5.65038E-001	 -2.00000E+000	 -2.00000E+000
  9.37500E-006	  6.10692E-001	  5.94047E-001	 -2.00000E+000	 -2.00000E+000
  1.25000E-005	  5.72153E-001	  6.06204E-001	 -2.00000E+000	 -2.00000E+000
  1.56250E-005	  6.42634E-001	  5.98276E-001	 -2.00000E+000	 -2.00000E+000
  1.87500E-005	  6.20992E-001	  6.14659E-001	 -2.00000E+000	 -2.00000E+000
  2.18750E-005	  5.61593E-001	  5.43906E-001	 -2.00000E+000	 -2.00000E+000
  2.50000E-005	  6.52142E-001	  6.52671E-001	 -2.00000E+000	 -2.00000E+000
  2.81250E-005	  6.25215E-001	  6.08321E-001	 -2.00000E+000	 -2.00000E+000
  3.12500E-005	  6.17834E-001	  6.02525E-001	 -2.00000E+000	 -2.00000E+000
  3.43750E-005	  5.82705E-001	  5.86147E-001	 -2.00000E+000	 -2.00000E+000
  3.75000E-005	  6.03838E-001	  5.76124E-001	 -2.00000E+000	 -2.00000E+000
  4.06250E-005	  5.92479E-001	  5.93526E-001	 -2.00000E+000	  1.14615E+000
  4.37500E-005	  6.33415E-001	  6.23643E-001	 -2.00000E+000	  1.49171E+000
  4.68750E-005	  6.56101E-001	  5.81396E-001	 -2.00000E+000	 -4.95421E-001
  5.00000E-005	  6.30626E-001	  6.20731E-001	 -2.00000E+000	  2.12919E+000
  5.62500E-005	  6.01987E-001	  5.95375E-001	 -2.00000E+000	  1.14269E+000
  6.25000E-005	  6.12011E-001	  6.07262E-001	 -2.00000E+000	  1.06601E+000
  6.87500E-005	  6.03837E-001	  6.00409E-001	 -1.93433E+000	  1.23229E+000
  7.50000E-005	  5.96970E-001	  5.99609E-001	  1.77006E+000	  8.29438E-001
  8.12500E-005	  6.59413E-001	  6.27599E-001	  8.86167E-001	  8.72775E-001
  8.75000E-005	  6.07927E-001	  6.18884E-001	  9.32104E-001	  8.41088E-001
  9.37500E-005	  6.08579E-001	  6.15971E-001	  8.34007E-001	  8.21288E-001
  1.00000E-004	  6.06867E-001	  6.21252E-001	  7.25653E-001	  7.66006E-001
  1.12500E-004	  6.42250E-001	  6.46869E-001	  7.24961E-001	  7.40168E-001
  1.25000E-004	  6.32483E-001	  6.46875E-001	  6.90436E-001	  7.50057E-001
  1.37500E-004	  6.34796E-001	  6.33278E-001	  6.50086E-001	  7.28616E-001
  1.50000E-004	  6.07996E-001	  5.97101E-001	  6.70158E-001	  7.23908E-001
  1.62500E-004	  5.99279E-001	  5.98422E-001	  6.05501E-001	  7.01393E-001
  1.75000E-004	  6.11162E-001	  5.89055E-001	  6.27623E-001	  6.80506E-001
  1.87500E-004	  6.01786E-001	  5.98288E-001	  6.52325E-001	  6.78965E-001
  2.00000E-004	  6.08159E-001	  6.08523E-001	  6.40250E-001	  6.91305E-001
  2.25000E-004	  6.03506E-001	  6.02714E-001	  6.18996E-001	  6.94597E-001
  2.50000E-004	  6.20965E-001	  6.24165E-001	  6.20247E-001	  6.66770E-001
  2.75000E-004	  6.16076E-001	  6.02513E-001	  6.40707E-001	  6.86027E-001
  3.00000E-004	  6.11761E-001	  6.14465E-001	  6.03455E-001	  6.59001E-001
  3.25000E-004	  6.21755E-001	  6.25814E-001	  6.06359E-001	  6.74518E-001
  3.50000E-004	  6.11457E-001	  6.15581E-001	  6.13987E-001	  6.42790E-001
  3.75000E-004	  6.04266E-001	  6.15053E-001	  6.28355E-001	  6.47480E-001
  4.00000E-004	  6.16096E-001	  6.23669E-001	  6.19291E-001	  6.51653E-001
  4.50000E-004	  6.14874E-001	  6.09412E-001	  6.13395E-001	  6.62785E-001
  5.00000E-004	  6.15997E-001	  6.16311E-001	  6.08181E-001	  6.49605E-001
  5.50000E-004	  6.16313E-001	  6.18096E-001	  6.15359E-001	  6.48269E-001
  6.00000E-004	  6.11574E-001	  6.16673E-001	  6.36791E-001	  6.37570E-001
  6.50000E-004	  6.09331E-001	  6.10701E-001	  6.14027E-001	  6.34301E-001
  7.00000E-004	  6.15615E-001	  6.12974E-001	  5.98492E-001	  6.44068E-001
  7.50000E-004	  6.19926E-001	  6.10834E-001	  6.14776E-001	  6.39755E-001
  8.00000E-004	  6.21237E-001	  6.15009E-001	  6.32696E-001	  6.45585E-001
  9.00000E-004	  6.17234E-001	  6.21146E-001	  6.21995E-001	  6.42688E-001
  1.00000E-003	  6.19026E-001	  6.18489E-001	  6.11499E-001	  6.42433E-001
  1.10000E-003	  6.16022E-001	  6.07401E-001	  6.17987E-001	  6.40477E-001
  1.20000E-003	  6.08019E-001	  6.18440E-001	  6.04190E-001	  6.31571E-001
  1.30000E-003	  6.08011E-001	  6.02351E-001	  5.99261E-001	  6.30056E-001
  1.40000E-003	  6.11946E-001	  6.08800E-001	  6.01713E-001	  6.38007E-001
  1.50000E-003	  6.08293E-001	  6.00935E-001	  6.08272E-001	  6.38928E-001
  1.60000E-003	  6.12565E-001	  6.12988E-001	  6.10566E-001	  6.31894E-001
  1.80000E-003	  6.05841E-001	  6.06634E-001	  6.04601E-001	  6.31959E-001
  2.00000E-003	  6.10104E-001	  6.14595E-001	  6.01140E-001	  6.23495E-001
  2.20000E-003	  6.11881E-001	  6.13546E-001	  6.01824E-001	  6.20715E-001
  2.40000E-003	  6.16128E-001	  6.18918E-001	  6.05694E-001	  6.21066E-001
  2.60000E-003	  6.04967E-001	  6.04429E-001	  6.07969E-001	  6.20375E-001
  2.80000E-003	  6.03388E-001	  6.03582E-001	  6.16684E-001	  6.24679E-001
  3.00000E-003	  6.08917E-001	  6.07648E-001	  6.00753E-001	  6.27672E-001
  3.20000E-003	  6.01685E-001	  6.01296E-001	  6.10615E-001	  6.23646E-001
  3.60000E-003	  6.01050E-001	  6.01700E-001	  5.97801E-001	  6.13891E-001
  4.00000E-003	  5.94485E-001	  5.92282E-001	  6.04901E-001	  6.11893E-001
  4.40000E-003	  5.94526E-001	  5.89786E-001	  5.98451E-001	  6.09142E-001
  4.80000E-003	  5.92688E-001	  5.90050E-001	  5.83793E-001	  6.05784E-001
  5.20000E-003	  5.91255E-001	  5.89606E-001	  5.92646E-001	  6.02675E-001
  5.60000E-003	  5.89005E-001	  5.89846E-001	  5.90277E-001	  5.97314E-001
  6.00000E-003	  5.85212E-001	  5.85653E-001	  5.83858E-001	  5.95863E-001
  6.40000E-003	  5.79984E-001	  5.83318E-001	  5.88432E-001	  5.92336E-001
  7.20000E-003	  5.77277E-001	  5.73790E-001	  5.86561E-001	  5.87773E-001
  8.00000E-003	  5.75352E-001	  5.74617E-001	  5.76236E-001	  5.83967E-001
  8.80000E-003	  5.68494E-001	  5.68259E-001	  5.76181E-001	  5.79534E-001
  9.60000E-003	  5.65726E-001	  5.66526E-001	  5.73304E-001	  5.78495E-001
  1.04000E-002	  5.59265E-001	  5.60747E-001	  5.68937E-001	  5.72461E-001
  1.12000E-002	  5.54658E-001	  5.52140E-001	  5.65392E-001	  5.63836E-001
  1.20000E-002	  5.49697E-001	  5.48570E-001	  5.59828E-001	  5.65319E-001
  1.28000E-002	  5.46191E-001	  5.45313E-001	  5.54576E-001	  5.57567E-001
  1.44000E-002	  5.39120E-001	  5.37736E-001	  5.47248E-001	  5.50372E-001
  1.60000E-002	  5.29816E-001	  5.29535E-001	  5.37832E-001	  5.40711E-001
  1.76000E-002	  5.21229E-001	  5.20315E-001	  5.32338E-001	  5.32005E-001
  1.92000E-002	  5.12313E-001	  5.13537E-001	  5.20114E-001	  5.23322E-001
  2.08000E-002	  5.03706E-001	  5.05904E-001	  5.12453E-001	  5.14361E-001
  2.24000E-002	  4.95977E-001	  4.98099E-001	  5.07917E-001	  5.07420E-001
  2.40000E-002	  4.91608E-001	  4.91465E-001	  4.95887E-001	  4.99313E-001
  2.56000E-002	  4.82113E-001	  4.81282E-001	  4.87750E-001	  4.91005E-001
  2.88000E-002	  4.67396E-001	  4.67202E-001	  4.74202E-001	  4.77312E-001
  3.20000E-002	  4.53094E-001	  4.53691E-001	  4.58902E-001	  4.64531E-001
  3.52000E-002	  4.40237E-001	  4.41588E-001	  4.48196E-001	  4.48183E-001
  3.84000E-002	  4.26001E-001	  4.24219E-001	  4.33497E-001	  4.36642E-001
  4.16000E-002	  4.12761E-001	  4.14249E-001	  4.18913E-001	  4.21989E-001
  4.48000E-002	  3.99580E-001	  3.99501E-001	  4.06909E-001	  4.08600E-001
  4.80000E-002	  3.87916E-001	  3.86759E-001	  3.95867E-001	  3.97652E-001
  5.12000E-002	  3.77378E-001	  3.76817E-001	  3.83279E-001	  3.85589E-001
  5.76000E-002	  3.54547E-001	  3.54830E-001	  3.59674E-001	  3.63133E-001
  6.40000E-002	  3.33580E-001	  3.33086E-001	  3.38879E-001	  3.41748E-001
  7.04000E-002	  3.13167E-001	  3.13513E-001	  3.17722E-001	  3.22154E-001
  7.68000E-002	  2.95294E-001	  2.95175E-001	  3.00513E-001	  3.02908E-001
  8.32000E-002	  2.78382E-001	  2.78037E-001	  2.83137E-001	  2.83740E-001
  8.96000E-002	  2.62288E-001	  2.62409E-001	  2.66503E-001	  2.67181E-001
  9.60000E-002	  2.46843E-001	  2.46683E-001	  2.50775E-001	  2.51932E-001
  1.02400E-001	  2.32537E-001	  2.32432E-001	  2.36167E-001	  2.38187E-001
  1.15200E-001	  2.05795E-001	  2.05997E-001	  2.09079E-001	  2.10341E-001
  1.28000E-001	  1.82664E-001	  1.82672E-001	  1.85145E-001	  1.86690E-001
  1.40800E-001	  1.60912E-001	  1.60928E-001	  1.63201E-001	  1.64692E-001
  1.53600E-001	  1.44011E-001	  1.43697E-001	  1.44551E-001	  1.47529E-001
  1.66400E-001	  1.26614E-001	  1.26214E-001	  1.28077E-001	  1.30167E-001
  1.79200E-001	  1.12643E-001	  1.12461E-001	  1.13949E-001	  1.16649E-001
  1.92000E-001	  1.00469E-001	  1.00633E-001	  1.01505E-001	  1.03199E-001
  2.04800E-001	  8.93861E-002	  8.94946E-002	  9.07470E-002	  9.11973E-002
  2.30400E-001	  7.07528E-002	  7.07376E-002	  7.19257E-002	  7.18789E-002
  2.56000E-001	  5.62679E-002	  5.60310E-002	  5.63505E-002	  5.63965E-002
  2.81600E-001	  4.39920E-002	  4.37100E-002	  4.51303E-002	  4.47561E-002
  3.07200E-001	  3.42353E-002	  3.40631E-002	  3.54948E-002	  3.51116E-002
  3.32800E-001	  2.67766E-002	  2.60026E-002	  2.75135E-002	  2.76198E-002
  3.58400E-001	  2.10176E-002	  2.11252E-002	  2.18746E-002	  2.14935E-002
  3.84000E-001	  1.75637E-002	  1.74435E-002	  1.83367E-002	  1.70227E-002
  4.09600E-001	  1.42838E-002	  1.46427E-002	  1.44274E-002	  1.45943E-002
  4.60800E-001	  8.88872E-003	  9.23302E-003	  8.48330E-003	  9.35257E-003
  5.12000E-001	  5.26121E-003	  5.51085E-003	  5.02005E-003	  5.72728E-003
  5.63200E-001	  3.34170E-003	  3.00057E-003	  2.83778E-003	  2.89352E-003
  6.14400E-001	  1.63656E-003	  2.15853E-003	  1.35172E-003	  2.14899E-003
  6.65600E-001	  7.94911E-004	  1.38681E-003	  6.61820E-004	  1.29872E-003
  7.16800E-001	  2.98516E-004	  9.83872E-004	  1.04328E-003	  1.28736E-004
  7.68000E-001	  1.36391E-004	  5.18305E-004	  6.05774E-004	  5.10845E-004
  8.19200E-001	 -2.78189E-004	  3.58064E-005	 -4.31758E-004	  6.12150E-004
  9.21600E-001	  6.43707E-005	  5.74462E-004	 -4.93847E-004	  1.45958E-004
  1.02400E+000	  2.55200E-004	  1.36015E-004	  9.71307E-005	  2.50806E-004
  1.12640E+000	  1.00562E-003	  1.19859E-003	  5.58348E-004	  1.34200E-003
  1.22880E+000	  5.60681E-004	  8.03139E-004	  2.20894E-004	  6.85160E-004
  1.33120E+000	  1.09603E-003	  1.33596E-003	  7.49857E-004	  1.07033E-003
  1.43360E+000	  3.63865E-004	  7.42919E-004	  3.40670E-004	  2.93652E-004
  1.53600E+000	  4.10955E-004	  8.36185E-004	  4.86200E-004	  8.20965E-004
  1.63840E+000	  3.09484E-004	  6.22228E-004	  2.69987E-004	  4.39631E-004
  1.84320E+000	 -7.71935E-004	 -1.04638E-003	 -6.80853E-004	 -9.96551E-004
  2.04800E+000	  6.95269E-004	  7.04284E-004	  2.97182E-004	  6.81794E-004
  2.25280E+000	  4.92691E-004	  1.51250E-004	 -1.90731E-005	  1.57197E-004
  2.45760E+000	  2.97432E-004	  2.97131E-004	  1.71405E-004	  7.64728E-004
  2.66240E+000	 -2.39242E-004	  3.66590E-005	 -5.81832E-004	 -2.93293E-004
  2.86720E+000	  6.15686E-004	  5.61495E-004	  6.58837E-004	  6.28925E-004
  3.07200E+000	  9.89437E-004	  1.17996E-003	  9.65799E-004	  1.13411E-003
  3.27680E+000	  6.70832E-004	  1.18639E-003	  4.37897E-004	  8.29633E-004
  3.68640E+000	  4.08535E-004	  6.33045E-004	  8.07687E-004	  2.85881E-004
  4.09600E+000	  4.00515E-004	  6.58762E-004	  2.51568E-004	  4.85554E-004
  4.50560E+000	  1.10527E-005	 -3.26892E-004	  4.29391E-004	 -1.20010E-004
  4.91520E+000	 -4.24152E-004	 -5.55726E-004	 -8.98468E-004	 -3.29910E-004
  5.32480E+000	  3.12253E-004	  2.16686E-004	  5.10266E-004	 -2.46061E-004
  5.73440E+000	 -3.65863E-004	 -8.30983E-004	 -5.70948E-004	 -3.63911E-004
  6.14400E+000	  1.84717E-004	 -1.96797E-004	  5.52978E-004	  1.60790E-004
  6.55360E+000	 -3.28104E-005	 -2.35606E-004	 -8.09768E-005	 -5.25661E-005
  7.37280E+000	 -8.02382E-005	 -2.18241E-004	  1.27925E-005	 -3.62257E-004
  8.19200E+000	 -2.12224E-005	 -1.10736E-004	 -3.21852E-005	  7.25879E-005
  9.01120E+000	 -4.91013E-005	 -5.99202E-005	 -5.96365E-005	 -7.24316E-005
  9.83040E+000	 -4.49503E-004	 -2.98009E-004	 -5.29533E-004	 -3.48762E-004
  1.06496E+001	  2.19001E-004	  7.82500E-004	  1.89935E-005	  3.16286E-004
  1.14688E+001	 -6.16404E-004	 -3.69697E-004	 -5.11850E-004	 -6.83617E-004
  1.22880E+001	  2.17337E-004	  2.39991E-004	  1.27261E-004	  1.71517E-004
  1.31072E+001	 -2.32043E-004	 -2.01056E-004	 -2.39280E-004	 -2.89065E-004
  1.47456E+001	  1.92858E-004	  3.08717E-004	  2.78967E-004	  1.76418E-004
  1.63840E+001	  1.64888E-005	  2.65437E-004	 -2.59883E-004	  1.41264E-004
  1.80224E+001	  1.20151E-004	  1.67288E-004	  8.91942E-005	  2.16894E-004
  1.96608E+001	  4.04492E-004	  4.99179E-004	  3.88306E-004	  3.32548E-004
  2.12992E+001	  1.04679E-004	  1.25355E-004	  1.72041E-004	 -6.02165E-005
  2.29376E+001	  5.58794E-005	  2.95150E-005	  6.79719E-005	  1.53058E-004
  2.45760E+001	  7.98014E-005	  5.48054E-005	 -1.61979E-005	  2.04405E-004
  2.62144E+001	  1.26817E-004	  1.40310E-004	  5.46559E-005	  4.71470E-005
  2.94912E+001	  1.21108E-004	  2.76473E-004	  1.10200E-004	  6.37160E-005
  3.27680E+001	  6.16084E-005	  1.76149E-004	 -1.40413E-004	  1.34855E-004
  3.60448E+001	 -9.33463E-006	 -1.42590E-006	 -1.28365E-004	  8.06989E-005
  3.93216E+001	  8.58041E-005	 -4.93300E-006	  4.08773E-005	  1.78109E-004
  4.25984E+001	 -1.52792E-004	 -8.31557E-005	 -2.17673E-004	 -1.18223E-004
  4.58752E+001	 -2.10262E-005	  1.04629E-004	 -6.59030E-006	 -7.61542E-005
  4.91520E+001	 -1.00602E-004	 -6.05459E-005	 -1.65862E-004	 -6.19445E-005
  5.24288E+001	  8.30982E-005	  4.79082E-005	  1.39306E-004	  1.01500E-005
  5.89824E+001	  1.46183E-004	  1.55585E-004	  1.76701E-004	  9.10870E-005
  6.55360E+001	  1.32968E-004	  2.09764E-004	  1.79607E-004	  5.54448E-005
  7.20896E+001	  8.84050E-005	  1.24451E-004	  1.29694E-004	  1.59493E-005
  7.86432E+001	  2.01140E-005	  9.52494E-005	 -3.41545E-005	  7.15693E-005
  8.51968E+001	  9.30484E-005	  1.49693E-004	  6.07081E-005	  1.72855E-004
  9.17504E+001	 -9.16058E-005	  7.95156E-006	 -1.75710E-005	 -1.62358E-004
  9.83040E+001	 -2.07488E-004	 -2.27564E-004	 -2.08519E-004	 -2.01196E-004
  1.04858E+002	 -1.44406E-004	 -1.40528E-004	 -1.30832E-004	 -1.51453E-004
  1.17965E+002	  2.88972E-005	  8.26147E-005	  4.77407E-006	  7.96729E-006
  1.31072E+002	 -5.38669E-005	 -6.47284E-005	 -3.44568E-005	 -1.24163E-004
  1.44179E+002	  2.40701E-004	  2.22434E-004	  1.57830E-004	  2.42211E-004
  1.57286E+002	  3.49043E-005	  5.45421E-005	  1.41343E-005	  3.49711E-005
  1.70394E+002	  4.47187E-005	  1.15958E-005	  5.93158E-005	  2.89270E-005
  1.83501E+002	  1.28986E-004	  1.77178E-004	  1.21079E-004	  1.62797E-004
  1.96608E+002	 -4.48453E-005	 -7.95208E-005	 -1.68580E-004	  7.86369E-005
  2.09715E+002	  3.81171E-005	  1.64614E-005	  3.65692E-005	  3.97764E-005
  2.35930E+002	 -7.50004E-005	 -6.00586E-005	 -1.02944E-004	 -6.11009E-005
  2.62144E+002	 -1.34685E-004	 -9.00913E-005	 -1.11627E-004	 -1.53723E-004
  2.88358E+002	 -3.09741E-005	 -3.61541E-005	 -6.10021E-005	 -4.75431E-006
  3.14573E+002	  1.08011E-004	  1.05384E-004	  1.07234E-004	  7.91684E-005
  3.40787E+002	 -1.55150E-006	 -5.18841E-005	 -9.02490E-005	  7.73969E-005
  3.67002E+002	  2.14689E-005	 -1.40988E-005	 -4.31871E-005	  7.28546E-005
  3.93216E+002	  4.99307E-005	  1.89127E-005	  1.11169E-004	 -1.59142E-005
  4.19430E+002	 -8.34260E-005	 -1.29468E-004	 -3.40605E-005	 -1.14322E-004
  4.71859E+002	  3.82295E-006	  1.28245E-005	  2.86375E-005	 -2.47760E-005
  5.24288E+002	  4.24006E-006	  4.35737E-005	  8.40491E-007	  7.63263E-006
  5.76717E+002	 -2.23653E-005	 -2.93217E-005	 -1.84764E-005	 -2.37886E-005
  6.29146E+002	 -7.10034E-005	 -7.58967E-005	 -6.67863E-005	 -8.22916E-005
  6.81574E+002	 -1.60459E-005	  3.83906E-006	 -3.47847E-005	 -4.93098E-006
  7.34003E+002	  2.43936E-005	  4.16110E-005	  6.70701E-006	  7.61253E-006
  7.86432E+002	  4.73321E-005	  4.53476E-005	  8.17303E-005	  1.09731E-005
  8.38861E+002	 -5.86183E-005	 -6.28103E-005	 -5.76565E-005	 -4.17353E-005
  9.43718E+002	  3.09799E-005	  3.14667E-005	  3.24627E-005	  1.68252E-005
  1.04858E+003	  5.92963E-005	  5.34857E-005	  5.78139E-005	  5.72631E-005
  1.15343E+003	  3.81648E-006	 -1.00314E-005	  2.01071E-006	  3.98840E-006
  1.25829E+003	 -3.19967E-005	 -1.59108E-005	 -4.76701E-005	 -7.70234E-007
  1.36315E+003	 -7.70143E-006	 -4.30035E-006	 -2.87613E-005	  9.97273E-006
  1.46801E+003	 -1.25392E-005	 -9.14570E-006	 -2.07910E-005	  3.90392E-008
  1.57286E+003	 -5.34443E-006	  5.23985E-007	  9.53721E-006	 -1.34244E-005
  1.67772E+003	  1.17521E-005	  5.28680E-006	  1.80099E-005	  1.05608E-005
  1.88744E+003	 -8.96674E-005	 -9.04449E-005	 -8.40877E-005	 -9.62665E-005
  2.09715E+003	  3.79541E-005	  6.00151E-005	  3.02262E-005	  3.96787E-005
  2.30687E+003	 -1.31096E-005	 -2.38001E-005	 -2.87213E-005	 -7.45987E-006
  2.51658E+003	 -1.03782E-005	 -2.50342E-005	 -9.97119E-006	 -1.88391E-005
  2.72630E+003	  3.99963E-005	  4.12516E-005	  2.91468E-005	  5.34417E-005
  2.93601E+003	  2.88322E-005	  1.92897E-005	  2.53238E-005	  4.67384E-005
  3.14573E+003	 -1.00700E-006	  9.74857E-006	  1.03397E-005	 -7.76677E-006
  3.35544E+003	 -2.60988E-005	 -2.41229E-005	 -2.57269E-005	 -2.38912E-005
  3.77487E+003	 -3.61163E-006	 -2.49203E-006	  4.23077E-006	 -1.64205E-005
  4.19430E+003	  4.49702E-005	  4.02761E-005	  4.72513E-005	  4.67650E-005
  4.61373E+003	 -1.96958E-005	 -1.33773E-005	 -2.18534E-005	 -2.61640E-005
  5.03317E+003	  3.24138E-006	  3.41041E-006	 -3.71485E-006	  3.67705E-006
  5.45260E+003	 -2.89282E-005	 -4.37056E-005	 -3.35959E-005	 -1.97013E-005
  5.87203E+003	 -1.69940E-005	 -2.09662E-005	 -2.38941E-005	 -2.12204E-005
  6.29146E+003	  4.60428E-007	  9.55663E-007	  1.72673E-006	  3.99312E-007
  6.71089E+003	  6.41718E-006	  2.28681E-006	 -5.29350E-007	  1.26626E-005
  7.54975E+003	  2.09965E-005	  1.95516E-005	  2.49249E-005	  2.03119E-005
  8.38861E+003	  2.16833E-005	  1.85325E-005	  2.05261E-005	  2.09679E-005
  9.22747E+003	  2.73343E-006	  5.69686E-006	 -7.95072E-006	  1.17493E-005
  1.00663E+004	 -2.06491E-005	 -2.60598E-005	 -2.07918E-005	 -2.19426E-005
  1.09052E+004	 -2.32509E-005	 -2.56859E-005	 -1.59122E-005	 -2.68641E-005
  1.17441E+004	  5.87323E-006	  7.38622E-006	  8.63848E-006	  6.47543E-007

"Count Rate"
       0.27344	      85.58724	     105.75832	      85.58724	     105.75832
       0.54688	      84.09553	     102.89188	      84.09553	     102.89188
       0.82031	      85.11926	     103.43665	      85.11926	     103.43665
       1.09375	      81.55083	     100.22289	      81.55083	     100.22289
       1.36719	      85.24722	     104.97956	      85.24722	     104.97956
       1.64063	      83.69334	     103.76571	      83.69334	     103.76571
       1.91406	      83.97121	     101.65976	      83.97121	     101.65976
       2.18750	      83.67141	     103.00157	      83.67141	     103.00157
       2.46094	      86.27826	     105.02709	      86.27826	     105.02709
       2.73438	      84.38071	     102.26302	      84.38071	     102.26302
       3.00781	      85.23991	     105.81682	      85.23991	     105.81682
       3.28125	      85.35690	     102.93211	      85.35690	     102.93211
       3.55469	      85.12656	     103.82056	      85.12656	     103.82056
       3.82813	      82.76833	     102.03635	      82.76833	     102.03635
       4.10156	      85.68596	     104.85890	      85.68596	     104.85890
       4.37500	      82.39906	     101.37823	      82.39906	     101.37823
       4.64844	      85.48853	     105.32690	      85.48853	     105.32690
       4.92188	      84.57814	     102.70908	      84.57814	     102.70908
       5.19531	      86.05523	     105.08559	      86.05523	     105.08559
       5.46875	      82.39175	     100.42032	      82.39175	     100.42032
       5.74219	      80.47226	     100.00352	      80.47226	     100.00352
       6.01563	      83.81034	     103.94121	      83.81034	     103.94121
       6.28906	      85.70789	     105.83144	      85.70789	     105.83144
       6.56250	      84.72804	     103.17707	      84.72804	     103.17707
       6.83594	      82.50875	     101.44038	      82.50875	     101.44038
       7.10938	      84.98763	     104.07648	      84.98763	     104.07648
       7.38281	      85.16679	     104.46404	      85.16679	     104.46404
       7.65625	      85.10098	     103.84980	      85.10098	     103.84980
       7.92969	      83.97853	     103.65968	      83.97853	     103.65968
       8.20313	      83.94928	     102.45680	      83.94928	     102.45680
       8.47656	      83.77013	     103.19535	      83.77013	     103.19535
       8.75000	      84.92913	     103.15878	      84.92913	     103.15878
       9.02344	      85.67133	     104.27392	      85.67133	     104.27392
       9.29688	      84.60373	     104.23004	      84.60373	     104.23004
       9.57031	      85.46293	     104.87353	      85.46293	     104.87353
       9.84375	      84.11381	     102.18259	      84.11381	     102.18259
      10.11719	      82.46122	     100.87368	      82.46122	     100.87368
      10.39063	      83.90906	     102.13506	      83.90906	     102.13506
      10.66406	      84.05531	     103.04545	      84.05531	     103.04545
      10.93750	      83.94928	     103.04545	      83.94928	     103.04545
      11.21094	      83.17783	     101.34167	      83.17783	     101.34167
      11.48438	      86.40257	     106.31406	      86.40257	     106.31406
      11.75781	      84.53061	     102.50068	      84.53061	     102.50068
      12.03125	      84.54889	     102.93576	      84.54889	     102.93576
      12.30469	      84.08090	     102.58112	      84.08090	     102.58112
      12.57813	      83.93100	     102.56283	      83.93100	     102.56283
      12.85156	      82.71349	     101.40382	      82.71349	     101.40382
      13.12500	      81.84332	     100.24847	      81.84332	     100.24847
      13.39844	      84.08821	     102.55552	      84.08821	     102.55552
      13.67188	      85.48487	     104.13499	      85.48487	     104.13499
      13.94531	      83.07545	     103.04910	      83.07545	     103.04910
      14.21875	      83.59829	     103.34891	      83.59829	     103.34891
      14.49219	      84.73901	     105.64498	      84.73901	     105.64498
      14.76563	      83.85056	     103.11126	      83.85056	     103.11126
      15.03906	      83.55441	     100.77496	      83.55441	     100.77496
      15.31250	      85.77005	     104.22273	      85.77005	     104.22273
      15.58594	      82.95846	     101.69267	      82.95846	     101.69267
      15.85938	      84.09918	     104.22639	      84.09918	     104.22639
      16.13281	      82.95846	     101.78773	      82.95846	     101.78773
      16.40625	      83.40816	     102.28130	      83.40816	     102.28130
      16.67969	      83.94196	     102.49336	      83.94196	     102.49336
      16.95313	      82.42466	     101.15155	      82.42466	     101.15155
      17.22656	      81.89452	      99.13700	      81.89452	      99.13700
      17.50000	      85.64208	     105.87167	      85.64208	     105.87167
      17.77344	      81.92376	     100.02545	      81.92376	     100.02545
      18.04688	      86.40623	     106.42740	      86.40623	     106.42740
      18.32031	      84.87064	     103.44762	      84.87064	     103.44762
      18.59375	      86.24535	     106.00694	      86.24535	     106.00694
      18.86719	      84.88892	     104.51523	      84.88892	     104.51523
      19.14063	      84.86697	     103.45128	      84.86697	     103.45128
      19.41406	      83.64582	     102.88457	      83.64582	     102.88457
      19.68750	      84.87429	     104.10574	      84.87429	     104.10574
      19.96094	      82.86340	     102.38734	      82.86340	     102.38734
      20.23438	      82.49778	     101.64513	      82.49778	     101.64513
      20.50781	      84.62933	     104.04723	      84.62933	     104.04723
      20.78125	      85.00591	     104.07283	      85.00591	     104.07283
      21.05469	      82.72446	     103.38181	      82.72446	     103.38181
      21.32813	      85.35325	     104.61760	      85.35325	     104.61760
      21.60156	      84.17962	     102.70908	      84.17962	     102.70908
      21.87500	      82.17970	     100.43128	      82.17970	     100.43128
      22.14844	      84.97666	     103.52074	      84.97666	     103.52074
      22.42188	      86.20513	     104.28854	      86.20513	     104.28854
      22.69531	      83.72991	     104.36533	      83.72991	     104.36533
      22.96875	      85.41541	     105.30130	      85.41541	     105.30130
      23.24219	      84.58179	     102.06194	      84.58179	     102.06194
      23.51563	      84.45017	     102.70177	      84.45017	     102.70177
      23.78906	      82.90727	     100.91024	      82.90727	     100.91024
      24.06250	      84.50502	     104.08379	      84.50502	     104.08379
      24.33594	      85.79198	     104.42382	      85.79198	     104.42382
      24.60938	      83.86519	     102.11678	      83.86519	     102.11678
      24.88281	      83.99316	     102.40196	      83.99316	     102.40196
      25.15625	      85.10463	     103.42934	      85.10463	     103.42934
      25.42969	      83.52151	     102.38002	      83.52151	     102.38002
      25.70313	      84.82310	     104.31048	      84.82310	     104.31048
      25.97656	      83.60560	     100.96143	      83.60560	     100.96143
      26.25000	      84.87429	     103.76936	      84.87429	     103.76936
      26.52344	      84.34780	     100.80056	      84.34780	     100.80056
      26.79688	      86.62560	     107.68878	      86.62560	     107.68878
      27.07031	      87.22886	     106.97583	      87.22886	     106.97583
      27.34375	      84.62202	     103.10760	      84.62202	     103.10760
      27.61719	      86.08448	     105.51701	      86.08448	     105.51701
      27.89063	      86.79378	     106.17513	      86.79378	     106.17513
      28.16406	      84.63298	     104.23736	      84.63298	     104.23736
      28.43750	      82.28938	     102.21549	      82.28938	     102.21549
      28.71094	      81.79214	     100.73840	      81.79214	     100.73840
      28.98438	      82.88168	     102.02903	      82.88168	     102.02903
      29.25781	      83.73357	     101.72923	      83.73357	     101.72923
      29.53125	      86.59634	     106.08006	      86.59634	     106.08006
      29.80469	      82.94018	     102.91016	      82.94018	     102.91016
      30.07813	      82.39541	     101.19176	      82.39541	     101.19176
      30.35156	      84.88526	     103.59022	      84.88526	     103.59022
      30.62500	      81.53255	      99.77683	      81.53255	      99.77683
      30.89844	      87.14111	     105.54626	      87.14111	     105.54626
      31.17188	      84.87429	     104.11304	      84.87429	     104.11304
      31.44531	      82.30400	     101.13327	      82.30400	     101.13327
      31.71875	      84.05165	     103.29407	      84.05165	     103.29407
      31.99219	      82.37713	     101.07843	      82.37713	     101.07843
      32.26563	      85.06807	     104.02164	      85.06807	     104.02164
      32.53906	      85.45197	     104.82234	      85.45197	     104.82234
      32.81250	      82.77565	     101.31242	      82.77565	     101.31242
      33.08594	      82.88533	     102.35078	      82.88533	     102.35078
      33.35938	      84.05897	     103.11857	      84.05897	     103.11857
      33.63281	      84.66589	     104.20811	      84.66589	     104.20811
      33.90625	      86.71700	     105.51701	      86.71700	     105.51701
      34.17969	      86.44644	     104.55179	      86.44644	     104.55179
      34.45313	      84.44286	     103.57925	      84.44286	     103.57925
      34.72656	      84.27102	     103.53537	      84.27102	     103.53537
      35.00000	      85.63477	     105.62305	      85.63477	     105.62305
      35.27344	      83.02792	     101.65976	      83.02792	     101.65976
      35.54688	      86.15029	     103.81324	      86.15029	     103.81324
      35.82031	      85.79198	     104.38726	      85.79198	     104.38726
      36.09375	      84.12477	     102.95039	      84.12477	     102.95039
      36.36719	      81.09747	     100.52634	      81.09747	     100.52634
      36.64063	      83.84325	     100.84077	      83.84325	     100.84077
      36.91406	      84.12843	     103.65603	      84.12843	     103.65603
      37.18750	      83.38623	     100.23385	      83.38623	     100.23385
      37.46094	      85.01688	     103.65603	      85.01688	     103.65603
      37.73438	      83.29848	     100.63603	      83.29848	     100.63603
      38.00781	      84.02972	     102.76392	      84.02972	     102.76392
      38.28125	      83.28386	     101.18446	      83.28386	     101.18446
      38.55469	      84.65492	     102.50799	      84.65492	     102.50799
      38.82813	      82.81221	     100.40569	      82.81221	     100.40569
      39.10156	      82.67693	     101.14058	      82.67693	     101.14058
      39.37500	      84.69879	     103.87540	      84.69879	     103.87540
      39.64844	      85.02419	     104.12767	      85.02419	     104.12767
      39.92188	      82.81586	     102.14603	      82.81586	     102.14603
      40.19531	      84.80848	     103.62312	      84.80848	     103.62312
      40.46875	      87.85772	     106.38353	      87.85772	     106.38353
      40.74219	      83.07911	     102.99792	      83.07911	     102.99792
      41.01563	      83.12664	     101.61588	      83.12664	     101.61588
      41.28906	      84.11015	     102.56283	      84.11015	     102.56283
      41.56250	      84.39533	     102.48605	      84.39533	     102.48605
      41.83594	      83.62022	     102.72005	      83.62022	     102.72005
      42.10938	      83.27289	     100.75303	      83.27289	     100.75303
      42.38281	      84.48308	     104.84428	      84.48308	     104.84428
      42.65625	      83.11201	     102.33615	      83.11201	     102.33615
      42.92969	      86.37698	     103.88637	      86.37698	     103.88637
      43.20313	      83.34601	     101.00165	      83.34601	     101.00165
      43.47656	      85.79930	     104.52254	      85.79930	     104.52254
      43.75000	      86.58904	     108.52238	      86.58904	     108.52238
      44.02344	      83.52151	     102.48971	      83.52151	     102.48971
      44.29688	      86.27094	     105.77660	      86.27094	     105.77660
      44.57031	      83.65678	     101.32705	      83.65678	     101.32705
      44.84375	      84.01875	     101.99612	      84.01875	     101.99612
      45.11719	      86.11373	     106.10201	      86.11373	     106.10201
      45.39063	      83.72260	     101.06746	      83.72260	     101.06746
      45.66406	      83.17052	     100.62506	      83.17052	     100.62506
      45.93750	      82.82684	     101.15886	      82.82684	     101.15886
      46.21094	      85.35325	     104.40554	      85.35325	     104.40554
      46.48438	      81.94204	     101.19543	      81.94204	     101.19543
      46.75781	      83.47398	     102.05463	      83.47398	     102.05463
      47.03125	      84.19424	     103.66699	      84.19424	     103.66699
      47.30469	      82.60747	     100.63603	      82.60747	     100.63603
      47.57813	      86.02964	     104.17155	      86.02964	     104.17155
      47.85156	      82.46487	     102.86629	      82.46487	     102.86629
      48.12500	      83.70066	     103.30138	      83.70066	     103.30138
      48.39844	      82.04442	      99.77318	      82.04442	      99.77318
      48.67188	      84.62933	     104.26295	      84.62933	     104.26295
      48.94531	      84.20521	     101.65244	      84.20521	     101.65244
      49.21875	      86.07717	     105.15140	      86.07717	     105.15140
      49.49219	      85.81027	     104.51157	      85.81027	     104.51157
      49.76563	      83.59463	     100.48978	      83.59463	     100.48978
      50.03906	      85.72984	     105.80219	      85.72984	     105.80219
      50.31250	      83.47763	     101.78773	      83.47763	     101.78773
      50.58594	      83.25826	     102.62864	      83.25826	     102.62864
      50.85938	      84.43189	     103.95218	      84.43189	     103.95218
      51.13281	      83.98584	     101.91203	      83.98584	     101.91203
      51.40625	      84.70611	     103.68893	      84.70611	     103.68893
      51.67969	      81.89452	     101.10402	      81.89452	     101.10402
      51.95313	      84.62202	     103.04545	      84.62202	     103.04545
      52.22656	      85.54337	     104.70169	      85.54337	     104.70169
      52.50000	      86.19417	     105.08193	      86.19417	     105.08193
      52.77344	      84.06262	     102.92113	      84.06262	     102.92113
      53.04688	      86.78647	     105.54992	      86.78647	     105.54992
      53.32031	      82.65500	     102.16065	      82.65500	     102.16065
      53.59375	      85.56896	     105.96672	      85.56896	     105.96672
      53.86719	      84.82310	     105.31227	      84.82310	     105.31227
      54.14063	      83.66410	     103.35622	      83.66410	     103.35622
      54.41406	      81.03165	      99.69640	      81.03165	      99.69640
      54.68750	      84.43921	     102.52261	      84.43921	     102.52261
      54.96094	      84.02240	     103.01254	      84.02240	     103.01254
      55.23438	      84.99860	     104.29220	      84.99860	     104.29220
      55.50781	      85.64208	     104.10574	      85.64208	     104.10574
      55.78125	      83.28751	     101.97419	      83.28751	     101.97419
      56.05469	      87.96741	     107.36338	      87.96741	     107.36338
      56.32813	      84.94010	     102.86629	      84.94010	     102.86629
      56.60156	      84.07359	     103.73646	      84.07359	     103.73646
      56.87500	      83.29848	     103.07104	      83.29848	     103.07104
      57.14844	      84.47942	     103.62678	      84.47942	     103.62678
      57.42188	      85.28744	     105.82413	      85.28744	     105.82413
      57.69531	      83.18514	     101.37458	      83.18514	     101.37458
      57.96875	      84.72804	     103.83152	      84.72804	     103.83152
      58.24219	      84.26006	     103.49881	      84.26006	     103.49881
      58.51563	      85.74446	     104.61028	      85.74446	     104.61028
      58.78906	      84.61470	     103.40009	      84.61470	     103.40009
      59.06250	      83.00233	     101.11134	      83.00233	     101.11134
      59.33594	      84.32220	     104.32876	      84.32220	     104.32876
      59.60938	      85.63843	     105.37808	      85.63843	     105.37808
      59.88281	      83.22170	     100.34354	      83.22170	     100.34354
      60.15625	      83.71894	     100.67625	      83.71894	     100.67625
      60.42969	      85.40443	     104.11670	      85.40443	     104.11670
      60.70313	      81.46674	     102.54455	      81.46674	     102.54455
      60.97656	      84.49039	     104.24467	      84.49039	     104.24467
      61.25000	      83.83228	     102.36539	      83.83228	     102.36539
      61.52344	      83.01330	      99.81339	      83.01330	      99.81339
      61.79688	      80.93660	      99.51359	      80.93660	      99.51359
      62.07031	      84.08456	     100.62506	      84.08456	     100.62506
      62.34375	      83.66044	     103.39644	      83.66044	     103.39644
      62.61719	      85.78102	     103.71818	      85.78102	     103.71818
      62.89063	      85.01322	     103.22459	      85.01322	     103.22459
      63.16406	      80.09202	      98.29974	      80.09202	      98.29974
      63.43750	      86.40623	     104.23736	      86.40623	     104.23736
      63.71094	      85.57262	     104.99052	      85.57262	     104.99052
      63.98438	      83.68969	     100.05104	      83.68969	     100.05104
      64.25781	      82.50143	     101.37823	      82.50143	     101.37823
      64.53125	      84.87794	     103.35988	      84.87794	     103.35988
      64.80469	      81.92376	     100.37279	      81.92376	     100.37279
      65.07813	      81.86892	     102.05828	      81.86892	     102.05828
      65.35156	      85.13022	     104.50060	      85.13022	     104.50060
      65.62500	      82.77200	     101.15886	      82.77200	     101.15886
      65.89844	      82.01882	     101.11864	      82.01882	     101.11864
      66.17188	      86.32213	     104.99784	      86.32213	     104.99784
      66.44531	      85.78833	     106.25922	      85.78833	     106.25922
      66.71875	      83.23267	     102.51164	      83.23267	     102.51164
      66.99219	      81.53255	     100.75668	      81.53255	     100.75668
      67.26563	      84.77557	     104.29951	      84.77557	     104.29951
      67.53906	      84.66954	     103.78399	      84.66954	     103.78399
      67.81250	      82.76102	     100.41666	      82.76102	     100.41666
      68.08594	      85.35325	     105.31958	      85.35325	     105.31958
      68.35938	      85.11926	     103.52074	      85.11926	     103.52074
      68.63281	      81.00607	      99.35637	      81.00607	      99.35637
      68.90625	      83.93100	     103.77303	      83.93100	     103.77303
      69.17969	      83.82863	     103.42203	      83.82863	     103.42203
      69.45313	      82.38078	     100.39472	      82.38078	     100.39472

Monitor Diode	1634709.96
"StandardDeviation"
  3.12500E-006	  3.02468E-002
  6.25000E-006	  3.02466E-002
  9.37500E-006	  3.02467E-002
  1.25000E-005	  3.02466E-002
  1.56250E-005	  3.02466E-002
  1.87500E-005	  3.02466E-002
  2.18750E-005	  3.02468E-002
  2.50000E-005	  3.02467E-002
  2.81250E-005	  3.02465E-002
  3.12500E-005	  2.99358E-002
  3.43750E-005	  3.01390E-002
  3.75000E-005	  2.99579E-002
  4.06250E-005	  3.00471E-002
  4.37500E-005	  2.99197E-002
  4.68750E-005	  3.02466E-002
  5.00000E-005	  2.12727E-002
  5.62500E-005	  2.10746E-002
  6.25000E-005	  2.12515E-002
  6.87500E-005	  2.10595E-002
  7.50000E-005	  2.10755E-002
  8.12500E-005	  2.12071E-002
  8.75000E-005	  2.11011E-002
  9.37500E-005	  2.12336E-002
  1.00000E-004	  1.49826E-002
  1.12500E-004	  1.49975E-002
  1.25000E-004	  1.49515E-002
  1.37500E-004	  1.49254E-002
  1.50000E-004	  1.48999E-002
  1.62500E-004	  1.49355E-002
  1.75000E-004	  1.49279E-002
  1.87500E-004	  1.49488E-002
  2.00000E-004	  1.05685E-002
  2.25000E-004	  1.05574E-002
  2.50000E-004	  1.05750E-002
  2.75000E-004	  1.06098E-002
  3.00000E-004	  1.05326E-002
  3.25000E-004	  1.05942E-002
  3.50000E-004	  1.05900E-002
  3.75000E-004	  1.05552E-002
  4.00000E-004	  7.50552E-003
  4.50000E-004	  7.50846E-003
  5.00000E-004	  7.50087E-003
  5.50000E-004	  7.48646E-003
  6.00000E-004	  7.50496E-003
  6.50000E-004	  7.49538E-003
  7.00000E-004	  7.51592E-003
  7.50000E-004	  7.49862E-003
  8.00000E-004	  5.34063E-003
  9.00000E-004	  5.34046E-003
  1.00000E-003	  5.33859E-003
  1.10000E-003	  5.33911E-003
  1.20000E-003	  5.33189E-003
  1.30000E-003	  5.33198E-003
  1.40000E-003	  5.33633E-003
  1.50000E-003	  5.32369E-003
  1.60000E-003	  3.81746E-003
  1.80000E-003	  3.81327E-003
  2.00000E-003	  3.81274E-003
  2.20000E-003	  3.81505E-003
  2.40000E-003	  3.82180E-003
  2.60000E-003	  3.81224E-003
  2.80000E-003	  3.80703E-003
  3.00000E-003	  3.81769E-003
  3.20000E-003	  2.75566E-003
  3.60000E-003	  2.75528E-003
  4.00000E-003	  2.75289E-003
  4.40000E-003	  2.75254E-003
  4.80000E-003	  2.75179E-003
  5.20000E-003	  2.74984E-003
  5.60000E-003	  2.74790E-003
  6.00000E-003	  2.74680E-003
  6.40000E-003	  2.02496E-003
  7.20000E-003	  2.02283E-003
  8.00000E-003	  2.02117E-003
  8.80000E-003	  2.01819E-003
  9.60000E-003	  2.01816E-003
  1.04000E-002	  2.01419E-003
  1.12000E-002	  2.01171E-003
  1.20000E-002	  2.01037E-003
  1.28000E-002	  1.53052E-003
  1.44000E-002	  1.52651E-003
  1.60000E-002	  1.52321E-003
  1.76000E-002	  1.52016E-003
  1.92000E-002	  1.51637E-003
  2.08000E-002	  1.51325E-003
  2.24000E-002	  1.51013E-003
  2.40000E-002	  1.50767E-003
  2.56000E-002	  1.19876E-003
  2.88000E-002	  1.19238E-003
  3.20000E-002	  1.18688E-003
  3.52000E-002	  1.18154E-003
  3.84000E-002	  1.17603E-003
  4.16000E-002	  1.17051E-003
  4.48000E-002	  1.16515E-003
  4.80000E-002	  1.15997E-003
  5.12000E-002	  9.69203E-004
  5.76000E-002	  9.58612E-004
  6.40000E-002	  9.48850E-004
  7.04000E-002	  9.39729E-004
  7.68000E-002	  9.31201E-004
  8.32000E-002	  9.22380E-004
  8.96000E-002	  9.14097E-004
  9.60000E-002	  9.06067E-004
  1.02400E-001	  7.87451E-004
  1.15200E-001	  7.71561E-004
  1.28000E-001	  7.57892E-004
  1.40800E-001	  7.44704E-004
  1.53600E-001	  7.32891E-004
  1.66400E-001	  7.22048E-004
  1.79200E-001	  7.12304E-004
  1.92000E-001	  7.04660E-004
  2.04800E-001	  6.24886E-004
  2.30400E-001	  6.12409E-004
  2.56000E-001	  6.02943E-004
  2.81600E-001	  5.95114E-004
  3.07200E-001	  5.88263E-004
  3.32800E-001	  5.83711E-004
  3.58400E-001	  5.67190E-004
  3.84000E-001	  5.67190E-004
  4.09600E-001	  5.13460E-004
  4.60800E-001	  5.13460E-004
  5.12000E-001	  5.13460E-004
  5.63200E-001	  5.13460E-004
  6.14400E-001	  5.13460E-004
  6.65600E-001	  5.13460E-004
  7.16800E-001	  5.13460E-004
  7.68000E-001	  5.13460E-004
  8.19200E-001	  4.81794E-004
  9.21600E-001	  4.81794E-004
  1.02400E+000	  4.81794E-004
  1.12640E+000	  4.81794E-004
  1.22880E+000	  4.81794E-004
  1.33120E+000	  4.81794E-004
  1.43360E+000	  4.81794E-004
  1.53600E+000	  4.81794E-004
  1.63840E+000	  4.31224E-004
  1.84320E+000	  4.31224E-004
  2.04800E+000	  4.31224E-004
  2.25280E+000	  4.31224E-004
  2.45760E+000	  4.31224E-004
  2.66240E+000	  4.31224E-004
  2.86720E+000	  4.31224E-004
  3.07200E+000	  4.31224E-004
  3.27680E+000	  3.64597E-004
  3.68640E+000	  3.64597E-004
  4.09600E+000	  3.64597E-004
  4.50560E+000	  3.64597E-004
  4.91520E+000	  3.64597E-004
  5.32480E+000	  3.64597E-004
  5.73440E+000	  3.64597E-004
  6.14400E+000	  3.64597E-004
  6.55360E+000	  2.88826E-004
  7.37280E+000	  2.88826E-004
  8.19200E+000	  2.88826E-004
  9.01120E+000	  2.88826E-004
  9.83040E+000	  2.88826E-004
  1.06496E+001	  2.88826E-004
  1.14688E+001	  2.88826E-004
  1.22880E+001	  2.88826E-004
  1.31072E+001	  2.16514E-004
  1.47456E+001	  2.16514E-004
  1.63840E+001	  2.16514E-004
  1.80224E+001	  2.16514E-004
  1.96608E+001	  2.16514E-004
  2.12992E+001	  2.16514E-004
  2.29376E+001	  2.16514E-004
  2.45760E+001	  2.16514E-004
  2.62144E+001	  1.57444E-004
  2.94912E+001	  1.57444E-004
  3.27680E+001	  1.57444E-004
  3.60448E+001	  1.57444E-004
  3.93216E+001	  1.57444E-004
  4.25984E+001	  1.57444E-004
  4.58752E+001	  1.57444E-004
  4.91520E+001	  1.57444E-004
  5.24288E+001	  1.12866E-004
  5.89824E+001	  1.12866E-004
  6.55360E+001	  1.12866E-004
  7.20896E+001	  1.12866E-004
  7.86432E+001	  1.12866E-004
  8.51968E+001	  1.12866E-004
  9.17504E+001	  1.12866E-004
  9.83040E+001	  1.12866E-004
  1.04858E+002	  8.03518E-005
  1.17965E+002	  8.03518E-005
  1.31072E+002	  8.03518E-005
  1.44179E+002	  8.03518E-005
  1.57286E+002	  8.03518E-005
  1.70394E+002	  8.03518E-005
  1.83501E+002	  8.03518E-005
  1.96608E+002	  8.03518E-005
  2.09715E+002	  5.70092E-005
  2.35930E+002	  5.70092E-005
  2.62144E+002	  5.70092E-005
  2.88358E+002	  5.70092E-005
  3.14573E+002	  5.70092E-005
  3.40787E+002	  5.70092E-005
  3.67002E+002	  5.70092E-005
  3.93216E+002	  5.70092E-005
  4.19430E+002	  4.03792E-005
  4.71859E+002	  4.03792E-005
  5.24288E+002	  4.03792E-005
  5.76717E+002	  4.03792E-005
  6.29146E+002	  4.03792E-005
  6.81574E+002	  4.03792E-005
  7.34003E+002	  4.03792E-005
  7.86432E+002	  4.03792E-005
  8.38861E+002	  2.85760E-005
  9.43718E+002	  2.85760E-005
  1.04858E+003	  2.85760E-005
  1.15343E+003	  2.85760E-005
  1.25829E+003	  2.85760E-005
  1.36315E+003	  2.85760E-005
  1.46801E+003	  2.85760E-005
  1.57286E+003	  2.85760E-005
  1.67772E+003	  2.02143E-005
  1.88744E+003	  2.02143E-005
  2.09715E+003	  2.02143E-005
  2.30687E+003	  2.02143E-005
  2.51658E+003	  2.02143E-005
  2.72630E+003	  2.02143E-005
  2.93601E+003	  2.02143E-005
  3.14573E+003	  2.02143E-005
  3.35544E+003	  1.42959E-005
  3.77487E+003	  1.42959E-005
  4.19430E+003	  1.42959E-005
  4.61373E+003	  1.42959E-005
  5.03317E+003	  1.42959E-005
  5.45260E+003	  1.42959E-005
  5.87203E+003	  1.42959E-005
  6.29146E+003	  1.42959E-005
  6.71089E+003	  1.01087E-005
  7.54975E+003	  1.01087E-005
  8.38861E+003	  1.01087E-005
  9.22747E+003	  1.01087E-005
  1.00663E+004	  1.01087E-005
  1.09052E+004	  1.01087E-005
  1.17441E+004	  1.01087E-005
