ALV-7004 or ALV-7004/FAST Data
Date :	"3/27/2010"
Time :	"10:33:11 AM"
Samplename : 	"BSA 1 g/l in YCl3 8.3mM"
SampMemo(0) : 	""
SampMemo(1) : 	""
SampMemo(2) : 	""
SampMemo(3) : 	""
SampMemo(4) : 	""
SampMemo(5) : 	""
SampMemo(6) : 	""
SampMemo(7) : 	""
SampMemo(8) : 	""
SampMemo(9) : 	""
Temperature [K] :	     295.65930
Viscosity [cp]  :	       0.94324
Refractive Index:	       1.33200
Wavelength [nm] :	     632.80000
Angle [°]       :	      30.00000
Duration [s]    :	        70
Runs            :	         1
Mode            :	"C-CH0/1+1/0"
MeanCR0 [kHz]   :	     107.14559
MeanCR1 [kHz]   :	     131.65456
MeanCR2 [kHz]   :	       0.00000
MeanCR3 [kHz]   :	       0.00000

"Correlation"
  3.12500E-006	  6.39140E-001	  6.58346E-001	 -2.00000E+000	 -2.00000E+000
  6.25000E-006	  6.04562E-001	  5.65218E-001	 -2.00000E+000	 -2.00000E+000
  9.37500E-006	  5.91338E-001	  6.03392E-001	 -2.00000E+000	 -2.00000E+000
  1.25000E-005	  5.97846E-001	  5.51951E-001	 -2.00000E+000	 -2.00000E+000
  1.56250E-005	  6.61578E-001	  6.70529E-001	 -2.00000E+000	 -2.00000E+000
  1.87500E-005	  6.61073E-001	  6.64047E-001	 -2.00000E+000	 -2.00000E+000
  2.18750E-005	  6.19344E-001	  5.62833E-001	 -2.00000E+000	 -2.00000E+000
  2.50000E-005	  6.28637E-001	  5.84915E-001	 -2.00000E+000	 -2.00000E+000
  2.81250E-005	  6.21941E-001	  6.49771E-001	 -2.00000E+000	 -2.00000E+000
  3.12500E-005	  6.17057E-001	  5.82371E-001	 -2.00000E+000	 -2.00000E+000
  3.43750E-005	  6.11702E-001	  6.03225E-001	 -2.00000E+000	 -1.99974E+000
  3.75000E-005	  5.67420E-001	  5.23069E-001	 -2.00000E+000	 -2.00000E+000
  4.06250E-005	  6.45747E-001	  6.18129E-001	 -2.00000E+000	  1.04209E+000
  4.37500E-005	  6.28139E-001	  6.05544E-001	 -2.00000E+000	  1.36255E+000
  4.68750E-005	  6.24475E-001	  5.68419E-001	 -2.00000E+000	 -5.01444E-001
  5.00000E-005	  6.28108E-001	  6.20545E-001	 -2.00000E+000	  2.06739E+000
  5.62500E-005	  6.24829E-001	  6.21342E-001	 -2.00000E+000	  1.00139E+000
  6.25000E-005	  6.24685E-001	  6.34490E-001	 -2.00000E+000	  1.03389E+000
  6.87500E-005	  6.06576E-001	  6.27535E-001	 -1.94328E+000	  1.12272E+000
  7.50000E-005	  6.28063E-001	  6.08159E-001	  1.67948E+000	  7.94332E-001
  8.12500E-005	  6.11779E-001	  5.84434E-001	  8.62643E-001	  8.13817E-001
  8.75000E-005	  6.18987E-001	  6.00841E-001	  8.79641E-001	  8.09924E-001
  9.37500E-005	  6.22995E-001	  6.12117E-001	  8.08630E-001	  7.63133E-001
  1.00000E-004	  6.21722E-001	  6.26441E-001	  7.02833E-001	  7.26504E-001
  1.12500E-004	  6.37106E-001	  6.47443E-001	  7.48177E-001	  7.36743E-001
  1.25000E-004	  5.97327E-001	  6.21548E-001	  6.85841E-001	  7.14931E-001
  1.37500E-004	  6.35957E-001	  6.35689E-001	  6.49873E-001	  7.09577E-001
  1.50000E-004	  6.05586E-001	  5.96582E-001	  6.55666E-001	  7.14744E-001
  1.62500E-004	  6.32857E-001	  6.22978E-001	  6.18955E-001	  6.69978E-001
  1.75000E-004	  6.31647E-001	  6.30595E-001	  5.95410E-001	  6.69785E-001
  1.87500E-004	  6.17350E-001	  6.16325E-001	  6.42387E-001	  6.91480E-001
  2.00000E-004	  6.21306E-001	  6.26288E-001	  6.09896E-001	  6.60203E-001
  2.25000E-004	  6.07902E-001	  6.16917E-001	  6.22865E-001	  6.67365E-001
  2.50000E-004	  6.29379E-001	  6.33653E-001	  6.03950E-001	  6.66254E-001
  2.75000E-004	  6.22259E-001	  6.07541E-001	  6.24214E-001	  6.45908E-001
  3.00000E-004	  6.26954E-001	  6.15192E-001	  6.12768E-001	  6.53415E-001
  3.25000E-004	  6.15762E-001	  6.16056E-001	  6.15838E-001	  6.44461E-001
  3.50000E-004	  6.25188E-001	  6.21923E-001	  6.11911E-001	  6.61459E-001
  3.75000E-004	  6.25841E-001	  6.33636E-001	  6.25627E-001	  6.51732E-001
  4.00000E-004	  6.27347E-001	  6.35002E-001	  6.20645E-001	  6.43819E-001
  4.50000E-004	  6.16448E-001	  6.15808E-001	  6.28108E-001	  6.52704E-001
  5.00000E-004	  6.19136E-001	  6.16686E-001	  6.17942E-001	  6.52075E-001
  5.50000E-004	  6.19397E-001	  6.26189E-001	  6.27496E-001	  6.46588E-001
  6.00000E-004	  6.28376E-001	  6.29588E-001	  6.31139E-001	  6.42614E-001
  6.50000E-004	  6.23169E-001	  6.30808E-001	  6.14636E-001	  6.44578E-001
  7.00000E-004	  6.15978E-001	  6.17197E-001	  6.11055E-001	  6.38250E-001
  7.50000E-004	  6.20299E-001	  6.26400E-001	  6.20216E-001	  6.41225E-001
  8.00000E-004	  6.14721E-001	  6.17110E-001	  6.24722E-001	  6.38897E-001
  9.00000E-004	  6.22507E-001	  6.25468E-001	  6.27025E-001	  6.37689E-001
  1.00000E-003	  6.16989E-001	  6.16243E-001	  6.10961E-001	  6.36070E-001
  1.10000E-003	  6.16020E-001	  6.07777E-001	  6.21367E-001	  6.40621E-001
  1.20000E-003	  6.11117E-001	  6.05850E-001	  6.21764E-001	  6.28102E-001
  1.30000E-003	  6.22027E-001	  6.22969E-001	  6.11758E-001	  6.36418E-001
  1.40000E-003	  6.14668E-001	  6.15283E-001	  6.16240E-001	  6.30904E-001
  1.50000E-003	  6.19075E-001	  6.18143E-001	  6.09099E-001	  6.27772E-001
  1.60000E-003	  6.14207E-001	  6.10751E-001	  6.20359E-001	  6.23366E-001
  1.80000E-003	  6.18244E-001	  6.16397E-001	  6.19448E-001	  6.28877E-001
  2.00000E-003	  6.16488E-001	  6.17995E-001	  6.16671E-001	  6.31653E-001
  2.20000E-003	  6.15845E-001	  6.18010E-001	  6.25888E-001	  6.21361E-001
  2.40000E-003	  6.14467E-001	  6.13454E-001	  6.19549E-001	  6.26229E-001
  2.60000E-003	  6.11546E-001	  6.13513E-001	  6.15819E-001	  6.28201E-001
  2.80000E-003	  6.13083E-001	  6.19759E-001	  6.12906E-001	  6.22180E-001
  3.00000E-003	  6.06621E-001	  6.06477E-001	  6.16380E-001	  6.22074E-001
  3.20000E-003	  6.08663E-001	  6.05811E-001	  6.15432E-001	  6.19597E-001
  3.60000E-003	  6.07395E-001	  6.06212E-001	  6.13773E-001	  6.18718E-001
  4.00000E-003	  6.07051E-001	  6.08479E-001	  6.17083E-001	  6.20017E-001
  4.40000E-003	  6.02607E-001	  6.03913E-001	  6.14322E-001	  6.17635E-001
  4.80000E-003	  6.04332E-001	  6.05201E-001	  6.13743E-001	  6.15991E-001
  5.20000E-003	  6.02828E-001	  6.00907E-001	  6.08025E-001	  6.13393E-001
  5.60000E-003	  6.01225E-001	  6.02097E-001	  6.10249E-001	  6.11693E-001
  6.00000E-003	  5.99481E-001	  6.00150E-001	  6.09052E-001	  6.08142E-001
  6.40000E-003	  5.99694E-001	  5.98301E-001	  6.05904E-001	  6.12000E-001
  7.20000E-003	  5.97509E-001	  5.96414E-001	  6.04926E-001	  6.06454E-001
  8.00000E-003	  5.92960E-001	  5.92981E-001	  6.01430E-001	  6.05198E-001
  8.80000E-003	  5.90634E-001	  5.89539E-001	  6.04239E-001	  6.03421E-001
  9.60000E-003	  5.87127E-001	  5.88300E-001	  5.97749E-001	  5.98299E-001
  1.04000E-002	  5.82828E-001	  5.83175E-001	  5.92450E-001	  5.96584E-001
  1.12000E-002	  5.80552E-001	  5.79657E-001	  5.93302E-001	  5.90985E-001
  1.20000E-002	  5.78953E-001	  5.78293E-001	  5.89947E-001	  5.89705E-001
  1.28000E-002	  5.76855E-001	  5.77124E-001	  5.90378E-001	  5.85359E-001
  1.44000E-002	  5.71363E-001	  5.71895E-001	  5.83926E-001	  5.80127E-001
  1.60000E-002	  5.65702E-001	  5.65773E-001	  5.75954E-001	  5.78794E-001
  1.76000E-002	  5.60340E-001	  5.61257E-001	  5.71903E-001	  5.71764E-001
  1.92000E-002	  5.54226E-001	  5.54770E-001	  5.65690E-001	  5.64510E-001
  2.08000E-002	  5.50892E-001	  5.50729E-001	  5.65682E-001	  5.61706E-001
  2.24000E-002	  5.46040E-001	  5.46885E-001	  5.55356E-001	  5.54755E-001
  2.40000E-002	  5.41129E-001	  5.41087E-001	  5.51927E-001	  5.50709E-001
  2.56000E-002	  5.37211E-001	  5.35994E-001	  5.46490E-001	  5.45299E-001
  2.88000E-002	  5.24855E-001	  5.25565E-001	  5.36043E-001	  5.35226E-001
  3.20000E-002	  5.18291E-001	  5.18741E-001	  5.28681E-001	  5.25025E-001
  3.52000E-002	  5.08251E-001	  5.08286E-001	  5.18683E-001	  5.14657E-001
  3.84000E-002	  4.98423E-001	  4.98389E-001	  5.09308E-001	  5.08234E-001
  4.16000E-002	  4.90010E-001	  4.89496E-001	  5.01476E-001	  4.99706E-001
  4.48000E-002	  4.82519E-001	  4.83329E-001	  4.90601E-001	  4.89749E-001
  4.80000E-002	  4.74566E-001	  4.74576E-001	  4.83270E-001	  4.81176E-001
  5.12000E-002	  4.65570E-001	  4.66343E-001	  4.74359E-001	  4.72901E-001
  5.76000E-002	  4.48912E-001	  4.48474E-001	  4.58773E-001	  4.56091E-001
  6.40000E-002	  4.33163E-001	  4.32907E-001	  4.43337E-001	  4.42280E-001
  7.04000E-002	  4.19508E-001	  4.18844E-001	  4.28222E-001	  4.26613E-001
  7.68000E-002	  4.04242E-001	  4.04021E-001	  4.13282E-001	  4.11398E-001
  8.32000E-002	  3.90552E-001	  3.90582E-001	  4.00135E-001	  3.97871E-001
  8.96000E-002	  3.77648E-001	  3.77493E-001	  3.85452E-001	  3.84053E-001
  9.60000E-002	  3.63975E-001	  3.63711E-001	  3.72300E-001	  3.70288E-001
  1.02400E-001	  3.52800E-001	  3.52777E-001	  3.60281E-001	  3.58661E-001
  1.15200E-001	  3.29489E-001	  3.29512E-001	  3.36577E-001	  3.34901E-001
  1.28000E-001	  3.07767E-001	  3.07458E-001	  3.13820E-001	  3.12922E-001
  1.40800E-001	  2.87867E-001	  2.87523E-001	  2.92985E-001	  2.91477E-001
  1.53600E-001	  2.68721E-001	  2.68326E-001	  2.74116E-001	  2.73149E-001
  1.66400E-001	  2.51178E-001	  2.50445E-001	  2.55087E-001	  2.55247E-001
  1.79200E-001	  2.34597E-001	  2.34437E-001	  2.39271E-001	  2.38704E-001
  1.92000E-001	  2.19760E-001	  2.19290E-001	  2.23918E-001	  2.23123E-001
  2.04800E-001	  2.05575E-001	  2.05805E-001	  2.09462E-001	  2.09350E-001
  2.30400E-001	  1.79531E-001	  1.79403E-001	  1.82832E-001	  1.82141E-001
  2.56000E-001	  1.56665E-001	  1.56852E-001	  1.59504E-001	  1.58839E-001
  2.81600E-001	  1.36875E-001	  1.36728E-001	  1.40359E-001	  1.38722E-001
  3.07200E-001	  1.19719E-001	  1.19971E-001	  1.22038E-001	  1.20934E-001
  3.32800E-001	  1.04117E-001	  1.03897E-001	  1.06070E-001	  1.05779E-001
  3.58400E-001	  9.13855E-002	  9.14064E-002	  9.33000E-002	  9.27767E-002
  3.84000E-001	  7.99828E-002	  8.00231E-002	  8.19072E-002	  8.08901E-002
  4.09600E-001	  7.04701E-002	  7.05523E-002	  7.19467E-002	  7.13589E-002
  4.60800E-001	  5.38691E-002	  5.40366E-002	  5.52760E-002	  5.53135E-002
  5.12000E-001	  4.15793E-002	  4.13690E-002	  4.27613E-002	  4.23375E-002
  5.63200E-001	  3.20250E-002	  3.21748E-002	  3.26045E-002	  3.27254E-002
  6.14400E-001	  2.49323E-002	  2.48089E-002	  2.55025E-002	  2.55562E-002
  6.65600E-001	  1.98714E-002	  1.98563E-002	  2.02612E-002	  2.01836E-002
  7.16800E-001	  1.57203E-002	  1.53815E-002	  1.59170E-002	  1.57636E-002
  7.68000E-001	  1.18696E-002	  1.16817E-002	  1.20098E-002	  1.19056E-002
  8.19200E-001	  9.11750E-003	  9.04946E-003	  9.27041E-003	  9.18748E-003
  9.21600E-001	  5.54952E-003	  5.63690E-003	  5.39431E-003	  5.81772E-003
  1.02400E+000	  3.21491E-003	  3.11779E-003	  3.06584E-003	  3.64540E-003
  1.12640E+000	  1.49321E-003	  1.45334E-003	  1.37691E-003	  1.93796E-003
  1.22880E+000	  5.22754E-004	  4.90955E-004	  3.34121E-004	  7.19891E-004
  1.33120E+000	 -5.20589E-004	 -3.45998E-004	 -8.92305E-004	 -3.79602E-004
  1.43360E+000	 -6.22742E-004	 -3.93967E-004	 -7.00999E-004	 -9.96171E-004
  1.53600E+000	 -7.71420E-004	 -1.06646E-003	 -7.73149E-004	 -1.10201E-003
  1.63840E+000	 -7.95584E-004	 -1.17567E-003	 -1.03502E-003	 -7.55454E-004
  1.84320E+000	 -3.18252E-005	  1.45785E-004	 -7.42873E-004	  7.31479E-004
  2.04800E+000	  2.35146E-004	  8.16993E-004	 -3.38463E-004	  2.75695E-004
  2.25280E+000	 -8.63836E-004	 -6.86242E-004	 -1.03923E-003	 -5.80656E-004
  2.45760E+000	 -8.86148E-004	 -6.95553E-004	 -5.45222E-004	 -1.01023E-003
  2.66240E+000	  4.78629E-004	  3.13303E-004	  2.99275E-004	  6.04494E-004
  2.86720E+000	  7.98355E-004	  4.82247E-004	  7.13817E-004	  1.08735E-003
  3.07200E+000	  9.75858E-004	  1.13536E-003	  1.09110E-003	  9.55152E-004
  3.27680E+000	  1.11399E-003	  1.50198E-003	  1.28252E-003	  1.02492E-003
  3.68640E+000	  3.44467E-004	  7.65027E-004	  6.60487E-004	 -8.30256E-005
  4.09600E+000	  2.73294E-004	  5.51161E-004	  5.69906E-004	 -6.41678E-005
  4.50560E+000	  6.53108E-004	  1.09908E-004	  8.57594E-004	  3.81610E-004
  4.91520E+000	 -7.52749E-004	 -1.07421E-003	 -9.29723E-004	 -8.67095E-004
  5.32480E+000	 -3.76330E-004	 -3.26024E-004	 -1.96597E-004	 -5.20566E-004
  5.73440E+000	 -1.84198E-004	 -4.42523E-005	 -3.64532E-005	 -3.32933E-004
  6.14400E+000	  2.29671E-004	  4.00469E-004	  3.14083E-004	 -1.46176E-005
  6.55360E+000	  4.75524E-004	  6.33526E-004	  7.07989E-004	  2.73870E-004
  7.37280E+000	  7.16640E-004	  5.47331E-004	  7.56356E-004	  6.62150E-004
  8.19200E+000	  1.94234E-003	  1.90847E-003	  2.11283E-003	  1.70888E-003
  9.01120E+000	  1.59558E-003	  1.74447E-003	  1.70568E-003	  1.37971E-003
  9.83040E+000	  6.92988E-004	  6.37776E-004	  5.46774E-004	  6.35609E-004
  1.06496E+001	  5.58189E-004	  4.81628E-004	  5.87196E-006	  1.02412E-003
  1.14688E+001	 -3.80329E-006	 -1.66863E-004	 -5.09929E-004	  4.44707E-004
  1.22880E+001	  6.77651E-005	  8.90197E-005	  6.83722E-005	  6.99457E-005
  1.31072E+001	  1.81475E-004	  2.63740E-004	  6.05916E-005	  2.62764E-004
  1.47456E+001	  3.18785E-004	  2.31908E-004	  2.66331E-006	  4.94156E-004
  1.63840E+001	  1.04404E-003	  1.17541E-003	  9.71331E-004	  9.68301E-004
  1.80224E+001	 -2.12665E-004	 -2.60091E-004	 -2.71100E-004	 -5.64357E-005
  1.96608E+001	 -1.74241E-004	 -1.06845E-004	 -2.11759E-004	 -2.66086E-004
  2.12992E+001	  8.75316E-005	 -2.17874E-004	 -1.28214E-004	  2.95528E-004
  2.29376E+001	  4.59155E-004	  4.09676E-004	  1.89721E-004	  5.66677E-004
  2.45760E+001	  2.41412E-004	  1.20000E-004	  1.91758E-004	  3.31772E-004
  2.62144E+001	  2.21354E-004	  9.33356E-005	  1.92457E-004	  2.89324E-004
  2.94912E+001	  3.09826E-004	  3.11162E-004	  3.89377E-004	  1.85867E-004
  3.27680E+001	  5.43979E-004	  6.38975E-004	  5.43127E-004	  5.60653E-004
  3.60448E+001	  1.75237E-004	  2.73605E-004	  3.16747E-004	  6.97125E-005
  3.93216E+001	  8.94816E-004	  7.58007E-004	  9.21169E-004	  8.77234E-004
  4.25984E+001	  4.67808E-004	  5.52599E-004	  3.66358E-004	  5.70454E-004
  4.58752E+001	  3.08864E-004	  3.48001E-004	  3.01315E-004	  3.62306E-004
  4.91520E+001	  6.78524E-004	  5.89400E-004	  8.13669E-004	  6.00745E-004
  5.24288E+001	  5.61118E-004	  4.90570E-004	  6.16606E-004	  5.20986E-004
  5.89824E+001	  1.45294E-004	  1.23291E-004	  1.43797E-004	  1.99311E-004
  6.55360E+001	  5.50276E-004	  5.82551E-004	  4.17899E-004	  6.41909E-004
  7.20896E+001	 -1.83933E-004	 -1.09811E-004	 -2.11464E-004	 -8.49807E-005
  7.86432E+001	  2.59263E-004	  2.60934E-004	  2.65588E-004	  1.86233E-004
  8.51968E+001	  2.06862E-004	  1.91987E-004	  1.40931E-004	  3.46281E-004
  9.17504E+001	  3.28543E-004	  4.54696E-004	  3.00147E-004	  3.78770E-004
  9.83040E+001	  4.23632E-004	  5.02331E-004	  4.86969E-004	  4.12364E-004
  1.04858E+002	  3.76252E-004	  4.33751E-004	  3.81426E-004	  3.34896E-004
  1.17965E+002	  3.96418E-004	  4.18211E-004	  3.78179E-004	  3.90303E-004
  1.31072E+002	  2.51399E-004	  2.92732E-004	  2.94647E-004	  2.46193E-004
  1.44179E+002	  3.62584E-004	  2.70528E-004	  3.56433E-004	  3.55032E-004
  1.57286E+002	  3.68603E-004	  3.67364E-004	  3.50679E-004	  3.78993E-004
  1.70394E+002	  2.93387E-004	  2.96343E-004	  2.51959E-004	  3.16659E-004
  1.83501E+002	  4.73643E-005	 -2.83618E-005	  2.67123E-005	  4.98221E-005
  1.96608E+002	  6.26373E-004	  5.67628E-004	  5.60510E-004	  5.69949E-004
  2.09715E+002	  4.52201E-004	  4.40590E-004	  4.11762E-004	  4.68551E-004
  2.35930E+002	  3.13750E-004	  3.21802E-004	  2.94693E-004	  3.26927E-004
  2.62144E+002	  1.90595E-004	  1.72273E-004	  2.42789E-004	  1.60335E-004
  2.88358E+002	  3.18663E-004	  3.47657E-004	  2.13680E-004	  4.16022E-004
  3.14573E+002	  3.45114E-004	  3.36531E-004	  3.59566E-004	  3.42455E-004
  3.40787E+002	 -1.70072E-004	 -8.95857E-005	 -1.45771E-004	 -2.22796E-004
  3.67002E+002	  1.50213E-004	  1.00957E-004	  1.31100E-004	  1.52157E-004
  3.93216E+002	  6.20192E-006	  3.01996E-005	 -1.74278E-005	  5.21153E-005
  4.19430E+002	  2.15379E-004	  2.09923E-004	  2.11631E-004	  2.32563E-004
  4.71859E+002	  2.02548E-004	  2.13782E-004	  2.01465E-004	  2.18211E-004
  5.24288E+002	  4.10074E-004	  4.14804E-004	  4.15272E-004	  4.04715E-004
  5.76717E+002	  2.03307E-004	  2.01408E-004	  1.90791E-004	  2.19784E-004
  6.29146E+002	  1.93127E-004	  1.88092E-004	  1.81101E-004	  2.04238E-004
  6.81574E+002	  1.39627E-004	  1.37944E-004	  1.34389E-004	  1.42765E-004
  7.34003E+002	  3.38583E-004	  2.91103E-004	  3.26045E-004	  3.70757E-004
  7.86432E+002	  2.00180E-004	  2.03786E-004	  1.55600E-004	  2.41686E-004
  8.38861E+002	  2.78672E-004	  2.83958E-004	  2.65045E-004	  2.98701E-004
  9.43718E+002	  1.19294E-004	  1.06368E-004	  1.23323E-004	  1.21695E-004
  1.04858E+003	  3.98056E-004	  3.70514E-004	  3.99749E-004	  3.87077E-004
  1.15343E+003	  2.16750E-004	  2.23101E-004	  2.53830E-004	  1.84660E-004
  1.25829E+003	  1.84137E-004	  1.80963E-004	  1.86891E-004	  1.93832E-004
  1.36315E+003	  1.51087E-004	  1.38779E-004	  1.45032E-004	  1.57110E-004
  1.46801E+003	  1.39770E-004	  9.73855E-005	  1.27714E-004	  1.55537E-004
  1.57286E+003	  2.14826E-004	  2.27523E-004	  1.86004E-004	  2.44397E-004
  1.67772E+003	  2.17433E-004	  2.17400E-004	  2.12669E-004	  2.07940E-004
  1.88744E+003	  1.48909E-004	  1.41752E-004	  1.60375E-004	  1.21877E-004
  2.09715E+003	  1.27285E-004	  1.42885E-004	  1.38852E-004	  1.11652E-004
  2.30687E+003	  2.28244E-004	  2.40715E-004	  2.38984E-004	  2.18235E-004
  2.51658E+003	  1.58096E-004	  1.49776E-004	  1.55770E-004	  1.42347E-004
  2.72630E+003	  2.99685E-004	  3.14889E-004	  3.01198E-004	  2.94062E-004
  2.93601E+003	  1.52808E-004	  1.76564E-004	  1.49278E-004	  1.50723E-004
  3.14573E+003	  2.25733E-004	  2.20578E-004	  2.09762E-004	  2.35727E-004
  3.35544E+003	  2.00521E-004	  1.99351E-004	  1.96243E-004	  2.03819E-004
  3.77487E+003	  1.33939E-004	  1.11709E-004	  1.52932E-004	  1.15928E-004
  4.19430E+003	  1.56072E-004	  1.49455E-004	  1.75912E-004	  1.38762E-004
  4.61373E+003	  1.49861E-004	  1.57534E-004	  1.57488E-004	  1.41262E-004
  5.03317E+003	  1.35299E-004	  1.11479E-004	  1.67563E-004	  1.03004E-004
  5.45260E+003	  9.05386E-005	  6.67590E-005	  1.04078E-004	  7.80192E-005
  5.87203E+003	  1.43551E-004	  1.28666E-004	  1.68671E-004	  1.16884E-004
  6.29146E+003	  1.35330E-004	  1.44439E-004	  1.40606E-004	  1.32007E-004
  6.71089E+003	  1.41300E-004	  1.53516E-004	  1.34765E-004	  1.36733E-004
  7.54975E+003	  1.71190E-004	  1.89504E-004	  1.65398E-004	  1.74602E-004
  8.38861E+003	  1.78313E-004	  1.53821E-004	  1.83102E-004	  1.69078E-004
  9.22747E+003	  9.32350E-005	  8.34977E-005	  9.08207E-005	  9.85341E-005
  1.00663E+004	  1.16247E-004	  9.51858E-005	  1.19103E-004	  1.18123E-004
  1.09052E+004	  1.63455E-004	  1.43882E-004	  1.55189E-004	  1.78004E-004
  1.17441E+004	  1.01686E-004	  1.04434E-004	  1.14565E-004	  8.48959E-005

"Count Rate"
       0.27344	     104.04723	     129.51610	     104.04723	     129.51610
       0.54688	     105.84607	     130.41917	     105.84607	     130.41917
       0.82031	     111.73616	     137.64011	     111.73616	     137.64011
       1.09375	     103.22459	     127.08109	     103.22459	     127.08109
       1.36719	     105.48045	     129.42470	     105.48045	     129.42470
       1.64063	     105.97404	     131.09923	     105.97404	     131.09923
       1.91406	     108.61745	     133.34412	     108.61745	     133.34412
       2.18750	     106.92098	     131.75002	     106.92098	     131.75002
       2.46094	     104.47866	     130.21443	     104.47866	     130.21443
       2.73438	     108.72713	     133.32948	     108.72713	     133.32948
       3.00781	     103.29407	     126.50342	     103.29407	     126.50342
       3.28125	     102.65789	     127.72092	     102.65789	     127.72092
       3.55469	     105.67423	     131.15041	     105.67423	     131.15041
       3.82813	     104.44576	     128.53990	     104.44576	     128.53990
       4.10156	     105.05634	     129.12489	     105.05634	     129.12489
       4.37500	     109.87151	     135.84492	     109.87151	     135.84492
       4.64844	     108.12386	     132.58728	     108.12386	     132.58728
       4.92188	     105.12581	     130.73726	     105.12581	     130.73726
       5.19531	     105.95941	     131.53796	     105.95941	     131.53796
       5.46875	     105.69982	     130.73726	     105.69982	     130.73726
       5.74219	     113.18765	     138.41887	     113.18765	     138.41887
       6.01563	     105.82779	     130.43381	     105.82779	     130.43381
       6.28906	     106.90270	     132.36060	     106.90270	     132.36060
       6.56250	     112.61364	     137.48289	     112.61364	     137.48289
       6.83594	     107.96664	     132.29114	     107.96664	     132.29114
       7.10938	     105.91188	     130.68242	     105.91188	     130.68242
       7.38281	     109.70333	     134.56161	     109.70333	     134.56161
       7.65625	     108.95016	     132.99678	     108.95016	     132.99678
       7.92969	     105.08193	     128.52162	     105.08193	     128.52162
       8.20313	     105.17333	     128.91649	     105.17333	     128.91649
       8.47656	     106.05082	     130.27293	     106.05082	     130.27293
       8.75000	     110.40166	     135.08080	     110.40166	     135.08080
       9.02344	     105.40002	     128.29860	     105.40002	     128.29860
       9.29688	     110.31757	     136.28001	     110.31757	     136.28001
       9.57031	     107.83503	     132.41545	     107.83503	     132.41545
       9.84375	     109.38890	     132.98215	     109.38890	     132.98215
      10.11719	     105.10387	     129.85612	     105.10387	     129.85612
      10.39063	     107.93008	     130.46671	     107.93008	     130.46671
      10.66406	     105.65961	     130.52521	     105.65961	     130.52521
      10.93750	     101.99978	     125.50529	     101.99978	     125.50529
      11.21094	     108.61013	     132.73718	     108.61013	     132.73718
      11.48438	     106.67236	     131.93649	     106.67236	     131.93649
      11.75781	     109.40718	     134.96014	     109.40718	     134.96014
      12.03125	     106.89905	     129.01521	     106.89905	     129.01521
      12.30469	     111.08170	     136.50304	     111.08170	     136.50304
      12.57813	     109.28652	     134.25815	     109.28652	     134.25815
      12.85156	     109.16222	     133.03334	     109.16222	     133.03334
      13.12500	     105.48411	     127.99148	     105.48411	     127.99148
      13.39844	     103.00157	     126.73742	     103.00157	     126.73742
      13.67188	     109.90807	     135.77180	     109.90807	     135.77180
      13.94531	     105.00515	     129.62213	     105.00515	     129.62213
      14.21875	     107.38531	     131.85605	     107.38531	     131.85605
      14.49219	     107.57544	     130.93105	     107.57544	     130.93105
      14.76563	     106.46030	     130.28391	     106.46030	     130.28391
      15.03906	     107.47672	     132.40448	     107.47672	     132.40448
      15.31250	     107.24273	     130.14496	     107.24273	     130.14496
      15.58594	     105.26474	     127.54909	     105.26474	     127.54909
      15.85938	     107.56812	     133.88522	     107.56812	     133.88522
      16.13281	     103.46225	     127.54543	     103.46225	     127.54543
      16.40625	     105.75101	     129.41739	     105.75101	     129.41739
      16.67969	     104.50060	     129.03714	     104.50060	     129.03714
      16.95313	     108.76004	     132.73718	     108.76004	     132.73718
      17.22656	     104.82966	     130.43015	     104.82966	     130.43015
      17.50000	     108.16774	     134.15578	     108.16774	     134.15578
      17.77344	     107.91180	     132.00595	     107.91180	     132.00595
      18.04688	     107.27197	     131.47946	     107.27197	     131.47946
      18.32031	     110.43091	     134.61281	     110.43091	     134.61281
      18.59375	     106.64311	     129.56729	     106.64311	     129.56729
      18.86719	     106.97948	     132.16316	     106.97948	     132.16316
      19.14063	     105.05268	     131.46484	     105.05268	     131.46484
      19.41406	     106.03619	     131.90358	     106.03619	     131.90358
      19.68750	     101.15886	     123.84173	     101.15886	     123.84173
      19.96094	     108.16774	     131.62572	     108.16774	     131.62572
      20.23438	     104.17886	     129.29674	     104.17886	     129.29674
      20.50781	     107.21348	     132.06445	     107.21348	     132.06445
      20.78125	     104.10939	     128.17429	     104.10939	     128.17429
      21.05469	     107.52791	     133.00775	     107.52791	     133.00775
      21.32813	     107.47307	     133.18689	     107.47307	     133.18689
      21.60156	     104.81138	     130.43381	     104.81138	     130.43381
      21.87500	     109.72892	     135.82300	     109.72892	     135.82300
      22.14844	     105.95210	     128.34979	     105.95210	     128.34979
      22.42188	     108.68691	     132.82127	     108.68691	     132.82127
      22.69531	     108.71616	     132.05348	     108.71616	     132.05348
      22.96875	     108.80391	     134.02051	     108.80391	     134.02051
      23.24219	     106.83324	     130.62027	     106.83324	     130.62027
      23.51563	     104.15692	     128.44850	     104.15692	     128.44850
      23.78906	     107.54253	     132.49222	     107.54253	     132.49222
      24.06250	     104.69072	     128.15601	     104.69072	     128.15601
      24.33594	     105.40002	     128.76294	     105.40002	     128.76294
      24.60938	     108.52604	     135.57072	     108.52604	     135.57072
      24.88281	     104.38726	     129.04080	     104.38726	     129.04080
      25.15625	     109.83129	     137.09900	     109.83129	     137.09900
      25.42969	     112.80376	     139.66197	     112.80376	     139.66197
      25.70313	     108.94285	     133.59639	     108.94285	     133.59639
      25.97656	     102.62498	     125.00805	     102.62498	     125.00805
      26.25000	     108.22989	     132.25092	     108.22989	     132.25092
      26.52344	     108.70519	     133.13571	     108.70519	     133.13571
      26.79688	     104.21908	     128.56184	     104.21908	     128.56184
      27.07031	     105.92651	     130.14496	     105.92651	     130.14496
      27.34375	     106.24825	     130.15593	     106.24825	     130.15593
      27.61719	     104.74922	     127.36262	     104.74922	     127.36262
      27.89063	     106.22997	     129.92560	     106.22997	     129.92560
      28.16406	     101.84622	     126.43030	     101.84622	     126.43030
      28.43750	     104.29220	     127.11400	     104.29220	     127.11400
      28.71094	     104.71632	     128.52893	     104.71632	     128.52893
      28.98438	     108.50410	     132.73354	     108.50410	     132.73354
      29.25781	     103.35622	     126.48880	     103.35622	     126.48880
      29.53125	     108.11655	     134.95648	     108.11655	     134.95648
      29.80469	     109.15490	     133.56348	     109.15490	     133.56348
      30.07813	     108.54432	     133.11012	     108.54432	     133.11012
      30.35156	     108.30667	     133.56714	     108.30667	     133.56714
      30.62500	     104.53351	     128.64227	     104.53351	     128.64227
      30.89844	     105.20990	     129.07370	     105.20990	     129.07370
      31.17188	     105.92651	     130.82867	     105.92651	     130.82867
      31.44531	     106.37621	     131.13943	     106.37621	     131.13943
      31.71875	     107.03798	     130.75920	     107.03798	     130.75920
      31.99219	     104.85525	     129.20168	     104.85525	     129.20168
      32.26563	     102.06194	     125.96231	     102.06194	     125.96231
      32.53906	     103.58290	     128.02805	     103.58290	     128.02805
      32.81250	     107.22445	     130.16324	     107.22445	     130.16324
      33.08594	     106.10931	     132.56169	     106.10931	     132.56169
      33.35938	     108.83316	     133.19421	     108.83316	     133.19421
      33.63281	     103.71818	     128.20720	     103.71818	     128.20720
      33.90625	     105.64864	     127.52715	     105.64864	     127.52715
      34.17969	     105.69617	     131.30031	     105.69617	     131.30031
      34.45313	     109.96291	     134.27643	     109.96291	     134.27643
      34.72656	     108.07633	     133.56714	     108.07633	     133.56714
      35.00000	     104.11670	     128.64227	     104.11670	     128.64227
      35.27344	     103.33794	     129.00058	     103.33794	     129.00058
      35.54688	     108.16774	     132.78471	     108.16774	     132.78471
      35.82031	     109.98851	     134.05707	     109.98851	     134.05707
      36.09375	     107.49135	     131.69518	     107.49135	     131.69518
      36.36719	     107.84599	     133.94373	     107.84599	     133.94373
      36.64063	     108.43098	     132.53244	     108.43098	     132.53244
      36.91406	     106.04716	     129.78300	     106.04716	     129.78300
      37.18750	     105.42561	     129.99141	     105.42561	     129.99141
      37.46094	     108.07999	     133.57811	     108.07999	     133.57811
      37.73438	     109.65214	     135.75719	     109.65214	     135.75719
      38.00781	     109.22803	     134.10094	     109.22803	     134.10094
      38.28125	     104.11670	     128.12675	     104.11670	     128.12675
      38.55469	     105.76198	     129.53438	     105.76198	     129.53438
      38.82813	     110.45284	     135.77547	     110.45284	     135.77547
      39.10156	     108.93919	     132.62384	     108.93919	     132.62384
      39.37500	     107.29391	     131.94014	     107.29391	     131.94014
      39.64844	     104.62125	     128.21085	     104.62125	     128.21085
      39.92188	     107.13304	     131.04803	     107.13304	     131.04803
      40.19531	     108.66498	     133.13937	     108.66498	     133.13937
      40.46875	     107.83868	     131.43193	     107.83868	     131.43193
      40.74219	     109.88248	     135.17586	     109.88248	     135.17586
      41.01563	     112.43814	     137.48656	     112.43814	     137.48656
      41.28906	     104.87719	     129.88904	     104.87719	     129.88904
      41.56250	     108.84413	     132.43007	     108.84413	     132.43007
      41.83594	     106.52978	     130.76286	     106.52978	     130.76286
      42.10938	     106.04716	     130.23271	     106.04716	     130.23271
      42.38281	     105.23549	     130.62392	     105.23549	     130.62392
      42.65625	     109.31212	     132.87978	     109.31212	     132.87978
      42.92969	     111.12558	     136.44455	     111.12558	     136.44455
      43.20313	     108.76735	     133.36604	     108.76735	     133.36604
      43.47656	     108.04708	     133.68779	     108.04708	     133.68779
      43.75000	     110.15669	     137.18674	     110.15669	     137.18674
      44.02344	     106.27750	     131.91821	     106.27750	     131.91821
      44.29688	     109.72892	     133.81575	     109.72892	     133.81575
      44.57031	     106.32503	     129.79762	     106.32503	     129.79762
      44.84375	     104.86256	     128.58743	     104.86256	     128.58743
      45.11719	     107.59007	     131.36247	     107.59007	     131.36247
      45.39063	     110.93180	     136.15570	     110.93180	     136.15570
      45.66406	     107.87159	     133.51230	     107.87159	     133.51230
      45.93750	     110.27369	     136.06796	     110.27369	     136.06796
      46.21094	     105.71445	     129.93657	     105.71445	     129.93657
      46.48438	     109.76548	     135.39888	     109.76548	     135.39888
      46.75781	     106.00694	     130.63124	     106.00694	     130.63124
      47.03125	     107.05992	     131.21988	     107.05992	     131.21988
      47.30469	     109.20975	     134.07169	     109.20975	     134.07169
      47.57813	     109.62289	     133.59639	     109.62289	     133.59639
      47.85156	     106.65043	     130.71533	     106.65043	     130.71533
      48.12500	     103.72184	     130.22905	     103.72184	     130.22905
      48.39844	     105.43292	     130.81404	     105.43292	     130.81404
      48.67188	     107.57178	     132.55803	     107.57178	     132.55803
      48.94531	     109.03790	     133.79382	     109.03790	     133.79382
      49.21875	     111.65207	     136.07892	     111.65207	     136.07892
      49.49219	     104.96859	     128.44850	     104.96859	     128.44850
      49.76563	     107.31950	     130.81039	     107.31950	     130.81039
      50.03906	     104.28489	     126.41933	     104.28489	     126.41933
      50.31250	     106.40181	     129.83784	     106.40181	     129.83784
      50.58594	     105.72542	     129.12489	     105.72542	     129.12489
      50.85938	     107.84599	     132.14854	     107.84599	     132.14854
      51.13281	     103.25385	     128.77756	     103.25385	     128.77756
      51.40625	     107.49866	     131.52699	     107.49866	     131.52699
      51.67969	     102.81145	     128.04997	     102.81145	     128.04997
      51.95313	     106.07275	     130.12303	     106.07275	     130.12303
      52.22656	     106.60290	     132.66042	     106.60290	     132.66042
      52.50000	     106.64311	     130.54715	     106.64311	     130.54715
      52.77344	     111.53873	     136.96007	     111.53873	     136.96007
      53.04688	     104.89547	     128.71175	     104.89547	     128.71175
      53.32031	     111.61550	     136.83575	     111.61550	     136.83575
      53.59375	     105.44024	     130.73361	     105.44024	     130.73361
      53.86719	     107.02702	     130.25830	     107.02702	     130.25830
      54.14063	     107.60835	     130.46306	     107.60835	     130.46306
      54.41406	     110.09088	     135.01498	     110.09088	     135.01498
      54.68750	     107.82771	     131.16869	     107.82771	     131.16869
      54.96094	     106.47493	     130.87254	     106.47493	     130.87254
      55.23438	     107.79481	     131.96573	     107.79481	     131.96573
      55.50781	     105.07828	     128.86531	     105.07828	     128.86531
      55.78125	     105.41830	     130.83963	     105.41830	     130.83963
      56.05469	     112.17490	     136.66391	     112.17490	     136.66391
      56.32813	     110.09819	     136.02774	     110.09819	     136.02774
      56.60156	     106.47128	     130.62758	     106.47128	     130.62758
      56.87500	     105.69982	     131.43925	     105.69982	     131.43925
      57.14844	     107.71437	     133.65854	     107.71437	     133.65854
      57.42188	     108.83681	     133.96567	     108.83681	     133.96567
      57.69531	     106.85517	     131.61108	     106.85517	     131.61108
      57.96875	     109.49127	     134.64204	     109.49127	     134.64204
      58.24219	     106.07275	     130.99686	     106.07275	     130.99686
      58.51563	     106.84055	     131.20160	     106.84055	     131.20160
      58.78906	     108.44560	     132.78838	     108.44560	     132.78838
      59.06250	     110.58081	     134.22525	     110.58081	     134.22525
      59.33594	     106.11297	     132.89441	     106.11297	     132.89441
      59.60938	     111.47292	     135.64018	     111.47292	     135.64018
      59.88281	     106.07275	     128.78853	     106.07275	     128.78853
      60.15625	     107.76556	     131.95477	     107.76556	     131.95477
      60.42969	     107.48769	     132.52513	     107.48769	     132.52513
      60.70313	     107.86427	     132.74084	     107.86427	     132.74084
      60.97656	     105.49508	     129.05542	     105.49508	     129.05542
      61.25000	     108.61013	     133.93642	     108.61013	     133.93642
      61.52344	     109.35965	     132.25458	     109.35965	     132.25458
      61.79688	     108.39442	     131.73906	     108.39442	     131.73906
      62.07031	     107.46941	     130.25099	     107.46941	     130.25099
      62.34375	     108.36151	     131.47215	     108.36151	     131.47215
      62.61719	     108.71616	     133.36971	     108.71616	     133.36971
      62.89063	     106.02522	     131.15041	     106.02522	     131.15041
      63.16406	     104.76019	     128.36075	     104.76019	     128.36075
      63.43750	     107.91546	     131.51602	     107.91546	     131.51602
      63.71094	     105.50970	     129.98410	     105.50970	     129.98410
      63.98438	     102.32518	     127.56005	     102.32518	     127.56005
      64.25781	     109.48030	     135.33673	     109.48030	     135.33673
      64.53125	     112.09081	     137.20137	     112.09081	     137.20137
      64.80469	     106.30309	     131.36978	     106.30309	     131.36978
      65.07813	     107.74362	     134.78830	     107.74362	     134.78830
      65.35156	     108.27742	     134.39709	     108.27742	     134.39709
      65.62500	     108.83681	     131.51968	     108.83681	     131.51968
      65.89844	     109.03790	     133.39896	     109.03790	     133.39896
      66.17188	     109.84592	     133.51961	     109.84592	     133.51961
      66.44531	     109.36330	     135.23434	     109.36330	     135.23434
      66.71875	     107.53888	     132.75912	     107.53888	     132.75912
      66.99219	     103.58290	     125.15430	     103.58290	     125.15430
      67.26563	     110.37972	     135.53050	     110.37972	     135.53050
      67.53906	     107.11111	     130.07550	     107.11111	     130.07550
      67.81250	     108.52238	     132.89075	     108.52238	     132.89075
      68.08594	     106.37256	     129.43567	     106.37256	     129.43567
      68.35938	     105.46583	     129.55998	     105.46583	     129.55998
      68.63281	     107.83868	     132.59825	     107.83868	     132.59825
      68.90625	     106.85152	     131.92917	     106.85152	     131.92917
      69.17969	     106.02522	     130.92372	     106.02522	     130.92372
      69.45313	     107.34145	     133.10646	     107.34145	     133.10646

Monitor Diode	1632401.42
"StandardDeviation"
  3.12500E-006	  2.33806E-002
  6.25000E-006	  2.33806E-002
  9.37500E-006	  2.33805E-002
  1.25000E-005	  2.33803E-002
  1.56250E-005	  2.33806E-002
  1.87500E-005	  2.33803E-002
  2.18750E-005	  2.33804E-002
  2.50000E-005	  2.33804E-002
  2.81250E-005	  2.33702E-002
  3.12500E-005	  2.33803E-002
  3.43750E-005	  2.32559E-002
  3.75000E-005	  2.30919E-002
  4.06250E-005	  2.33803E-002
  4.37500E-005	  2.30553E-002
  4.68750E-005	  2.31255E-002
  5.00000E-005	  1.64068E-002
  5.62500E-005	  1.64272E-002
  6.25000E-005	  1.62814E-002
  6.87500E-005	  1.63949E-002
  7.50000E-005	  1.63426E-002
  8.12500E-005	  1.62785E-002
  8.75000E-005	  1.64175E-002
  9.37500E-005	  1.63762E-002
  1.00000E-004	  1.15462E-002
  1.12500E-004	  1.16126E-002
  1.25000E-004	  1.15825E-002
  1.37500E-004	  1.16315E-002
  1.50000E-004	  1.15161E-002
  1.62500E-004	  1.16679E-002
  1.75000E-004	  1.15849E-002
  1.87500E-004	  1.15919E-002
  2.00000E-004	  8.23307E-003
  2.25000E-004	  8.18757E-003
  2.50000E-004	  8.23518E-003
  2.75000E-004	  8.20153E-003
  3.00000E-004	  8.24504E-003
  3.25000E-004	  8.23430E-003
  3.50000E-004	  8.23940E-003
  3.75000E-004	  8.22952E-003
  4.00000E-004	  5.85459E-003
  4.50000E-004	  5.83696E-003
  5.00000E-004	  5.85225E-003
  5.50000E-004	  5.85905E-003
  6.00000E-004	  5.86605E-003
  6.50000E-004	  5.85275E-003
  7.00000E-004	  5.84749E-003
  7.50000E-004	  5.84563E-003
  8.00000E-004	  4.18652E-003
  9.00000E-004	  4.19756E-003
  1.00000E-003	  4.19143E-003
  1.10000E-003	  4.18941E-003
  1.20000E-003	  4.18886E-003
  1.30000E-003	  4.19484E-003
  1.40000E-003	  4.18801E-003
  1.50000E-003	  4.19432E-003
  1.60000E-003	  3.03976E-003
  1.80000E-003	  3.03982E-003
  2.00000E-003	  3.03977E-003
  2.20000E-003	  3.03591E-003
  2.40000E-003	  3.03534E-003
  2.60000E-003	  3.03387E-003
  2.80000E-003	  3.03635E-003
  3.00000E-003	  3.03331E-003
  3.20000E-003	  2.24647E-003
  3.60000E-003	  2.24643E-003
  4.00000E-003	  2.24541E-003
  4.40000E-003	  2.24359E-003
  4.80000E-003	  2.24454E-003
  5.20000E-003	  2.24289E-003
  5.60000E-003	  2.24313E-003
  6.00000E-003	  2.24180E-003
  6.40000E-003	  1.72029E-003
  7.20000E-003	  1.71927E-003
  8.00000E-003	  1.71766E-003
  8.80000E-003	  1.71664E-003
  9.60000E-003	  1.71562E-003
  1.04000E-002	  1.71435E-003
  1.12000E-002	  1.71344E-003
  1.20000E-002	  1.71248E-003
  1.28000E-002	  1.38028E-003
  1.44000E-002	  1.37790E-003
  1.60000E-002	  1.37673E-003
  1.76000E-002	  1.37488E-003
  1.92000E-002	  1.37301E-003
  2.08000E-002	  1.37149E-003
  2.24000E-002	  1.37028E-003
  2.40000E-002	  1.36857E-003
  2.56000E-002	  1.16776E-003
  2.88000E-002	  1.16393E-003
  3.20000E-002	  1.16105E-003
  3.52000E-002	  1.15807E-003
  3.84000E-002	  1.15488E-003
  4.16000E-002	  1.15197E-003
  4.48000E-002	  1.14898E-003
  4.80000E-002	  1.14593E-003
  5.12000E-002	  1.02982E-003
  5.76000E-002	  1.02277E-003
  6.40000E-002	  1.01663E-003
  7.04000E-002	  1.01061E-003
  7.68000E-002	  1.00455E-003
  8.32000E-002	  9.98364E-004
  8.96000E-002	  9.92096E-004
  9.60000E-002	  9.85988E-004
  1.02400E-001	  9.17511E-004
  1.15200E-001	  9.03398E-004
  1.28000E-001	  8.91129E-004
  1.40800E-001	  8.78856E-004
  1.53600E-001	  8.67118E-004
  1.66400E-001	  8.55452E-004
  1.79200E-001	  8.44437E-004
  1.92000E-001	  8.34140E-004
  2.04800E-001	  7.86249E-004
  2.30400E-001	  7.66741E-004
  2.56000E-001	  7.50410E-004
  2.81600E-001	  7.35317E-004
  3.07200E-001	  7.21649E-004
  3.32800E-001	  7.09339E-004
  3.58400E-001	  6.98331E-004
  3.84000E-001	  6.88231E-004
  4.09600E-001	  6.49084E-004
  4.60800E-001	  6.32466E-004
  5.12000E-001	  6.19394E-004
  5.63200E-001	  6.09209E-004
  6.14400E-001	  5.78663E-004
  6.65600E-001	  5.78663E-004
  7.16800E-001	  5.78663E-004
  7.68000E-001	  5.78663E-004
  8.19200E-001	  5.67564E-004
  9.21600E-001	  5.67564E-004
  1.02400E+000	  5.67564E-004
  1.12640E+000	  5.67564E-004
  1.22880E+000	  5.67564E-004
  1.33120E+000	  5.67564E-004
  1.43360E+000	  5.67564E-004
  1.53600E+000	  5.67564E-004
  1.63840E+000	  5.37233E-004
  1.84320E+000	  5.37233E-004
  2.04800E+000	  5.37233E-004
  2.25280E+000	  5.37233E-004
  2.45760E+000	  5.37233E-004
  2.66240E+000	  5.37233E-004
  2.86720E+000	  5.37233E-004
  3.07200E+000	  5.37233E-004
  3.27680E+000	  4.84769E-004
  3.68640E+000	  4.84769E-004
  4.09600E+000	  4.84769E-004
  4.50560E+000	  4.84769E-004
  4.91520E+000	  4.84769E-004
  5.32480E+000	  4.84769E-004
  5.73440E+000	  4.84769E-004
  6.14400E+000	  4.84769E-004
  6.55360E+000	  4.10757E-004
  7.37280E+000	  4.10757E-004
  8.19200E+000	  4.10757E-004
  9.01120E+000	  4.10757E-004
  9.83040E+000	  4.10757E-004
  1.06496E+001	  4.10757E-004
  1.14688E+001	  4.10757E-004
  1.22880E+001	  4.10757E-004
  1.31072E+001	  3.27739E-004
  1.47456E+001	  3.27739E-004
  1.63840E+001	  3.27739E-004
  1.80224E+001	  3.27739E-004
  1.96608E+001	  3.27739E-004
  2.12992E+001	  3.27739E-004
  2.29376E+001	  3.27739E-004
  2.45760E+001	  3.27739E-004
  2.62144E+001	  2.45379E-004
  2.94912E+001	  2.45379E-004
  3.27680E+001	  2.45379E-004
  3.60448E+001	  2.45379E-004
  3.93216E+001	  2.45379E-004
  4.25984E+001	  2.45379E-004
  4.58752E+001	  2.45379E-004
  4.91520E+001	  2.45379E-004
  5.24288E+001	  1.78350E-004
  5.89824E+001	  1.78350E-004
  6.55360E+001	  1.78350E-004
  7.20896E+001	  1.78350E-004
  7.86432E+001	  1.78350E-004
  8.51968E+001	  1.78350E-004
  9.17504E+001	  1.78350E-004
  9.83040E+001	  1.78350E-004
  1.04858E+002	  1.27823E-004
  1.17965E+002	  1.27823E-004
  1.31072E+002	  1.27823E-004
  1.44179E+002	  1.27823E-004
  1.57286E+002	  1.27823E-004
  1.70394E+002	  1.27823E-004
  1.83501E+002	  1.27823E-004
  1.96608E+002	  1.27823E-004
  2.09715E+002	  9.09894E-005
  2.35930E+002	  9.09894E-005
  2.62144E+002	  9.09894E-005
  2.88358E+002	  9.09894E-005
  3.14573E+002	  9.09894E-005
  3.40787E+002	  9.09894E-005
  3.67002E+002	  9.09894E-005
  3.93216E+002	  9.09894E-005
  4.19430E+002	  6.45526E-005
  4.71859E+002	  6.45526E-005
  5.24288E+002	  6.45526E-005
  5.76717E+002	  6.45526E-005
  6.29146E+002	  6.45526E-005
  6.81574E+002	  6.45526E-005
  7.34003E+002	  6.45526E-005
  7.86432E+002	  6.45526E-005
  8.38861E+002	  4.57203E-005
  9.43718E+002	  4.57203E-005
  1.04858E+003	  4.57203E-005
  1.15343E+003	  4.57203E-005
  1.25829E+003	  4.57203E-005
  1.36315E+003	  4.57203E-005
  1.46801E+003	  4.57203E-005
  1.57286E+003	  4.57203E-005
  1.67772E+003	  3.23547E-005
  1.88744E+003	  3.23547E-005
  2.09715E+003	  3.23547E-005
  2.30687E+003	  3.23547E-005
  2.51658E+003	  3.23547E-005
  2.72630E+003	  3.23547E-005
  2.93601E+003	  3.23547E-005
  3.14573E+003	  3.23547E-005
  3.35544E+003	  2.28860E-005
  3.77487E+003	  2.28860E-005
  4.19430E+003	  2.28860E-005
  4.61373E+003	  2.28860E-005
  5.03317E+003	  2.28860E-005
  5.45260E+003	  2.28860E-005
  5.87203E+003	  2.28860E-005
  6.29146E+003	  2.28860E-005
  6.71089E+003	  1.61838E-005
  7.54975E+003	  1.61838E-005
  8.38861E+003	  1.61838E-005
  9.22747E+003	  1.61838E-005
  1.00663E+004	  1.61838E-005
  1.09052E+004	  1.61838E-005
  1.17441E+004	  1.61838E-005
