ALV-7004 or ALV-7004/FAST Data
Date :	"3/27/2010"
Time :	"10:31:47 AM"
Samplename : 	"BSA 1 g/l in YCl3 8.3mM"
SampMemo(0) : 	""
SampMemo(1) : 	""
SampMemo(2) : 	""
SampMemo(3) : 	""
SampMemo(4) : 	""
SampMemo(5) : 	""
SampMemo(6) : 	""
SampMemo(7) : 	""
SampMemo(8) : 	""
SampMemo(9) : 	""
Temperature [K] :	     295.66041
Viscosity [cp]  :	       0.94308
Refractive Index:	       1.33200
Wavelength [nm] :	     632.80000
Angle [°]       :	      30.00000
Duration [s]    :	        70
Runs            :	         1
Mode            :	"C-CH0/1+1/0"
MeanCR0 [kHz]   :	     108.18359
MeanCR1 [kHz]   :	     133.02123
MeanCR2 [kHz]   :	       0.00000
MeanCR3 [kHz]   :	       0.00000

"Correlation"
  3.12500E-006	  3.20626E-001	  3.42756E-001	 -1.00000E+000	 -1.00000E+000
  6.25000E-006	  2.95631E-001	  2.73341E-001	 -1.00000E+000	 -1.00000E+000
  9.37500E-006	  2.98974E-001	  2.97223E-001	 -1.00000E+000	 -1.00000E+000
  1.25000E-005	  3.06457E-001	  2.70794E-001	 -1.00000E+000	 -1.00000E+000
  1.56250E-005	  3.43552E-001	  3.50716E-001	 -1.00000E+000	 -1.00000E+000
  1.87500E-005	  3.20308E-001	  3.01680E-001	 -1.00000E+000	 -1.00000E+000
  2.18750E-005	  3.19671E-001	  2.94994E-001	 -1.00000E+000	 -1.00000E+000
  2.50000E-005	  3.01840E-001	  2.95312E-001	 -1.00000E+000	 -1.00000E+000
  2.81250E-005	  3.11711E-001	  3.16964E-001	 -1.00000E+000	 -1.00000E+000
  3.12500E-005	  3.04228E-001	  2.76526E-001	 -1.00000E+000	 -1.00000E+000
  3.43750E-005	  3.12029E-001	  3.05501E-001	 -1.00000E+000	 -9.99741E-001
  3.75000E-005	  2.84964E-001	  2.53281E-001	 -1.00000E+000	 -1.00000E+000
  4.06250E-005	  3.07094E-001	  3.07412E-001	 -1.00000E+000	  5.18028E-001
  4.37500E-005	  3.26517E-001	  3.03272E-001	 -1.00000E+000	  6.67966E-001
  4.68750E-005	  3.14895E-001	  2.91809E-001	 -1.00000E+000	 -2.46424E-001
  5.00000E-005	  3.11949E-001	  3.00407E-001	 -1.00000E+000	  1.02689E+000
  5.62500E-005	  3.05422E-001	  3.09163E-001	 -1.00000E+000	  5.05080E-001
  6.25000E-005	  3.28666E-001	  3.41801E-001	 -1.00000E+000	  5.24890E-001
  6.87500E-005	  2.92367E-001	  3.16168E-001	 -9.71615E-001	  5.62440E-001
  7.50000E-005	  3.22218E-001	  3.18556E-001	  8.25262E-001	  4.00071E-001
  8.12500E-005	  3.16248E-001	  3.19193E-001	  4.24934E-001	  3.97482E-001
  8.75000E-005	  3.01123E-001	  3.02954E-001	  4.53907E-001	  4.19364E-001
  9.37500E-005	  3.11790E-001	  3.07571E-001	  4.11035E-001	  3.74952E-001
  1.00000E-004	  3.22576E-001	  3.18079E-001	  3.55929E-001	  3.69320E-001
  1.12500E-004	  3.22815E-001	  3.23651E-001	  3.79420E-001	  3.75858E-001
  1.25000E-004	  2.89939E-001	  3.07014E-001	  3.47120E-001	  3.63299E-001
  1.37500E-004	  3.17362E-001	  3.18556E-001	  3.39191E-001	  3.50674E-001
  1.50000E-004	  3.13263E-001	  3.04705E-001	  3.33808E-001	  3.56436E-001
  1.62500E-004	  3.05979E-001	  3.00566E-001	  3.07674E-001	  3.35331E-001
  1.75000E-004	  3.23731E-001	  3.21502E-001	  3.02291E-001	  3.35072E-001
  1.87500E-004	  3.07810E-001	  3.08287E-001	  3.23922E-001	  3.50092E-001
  2.00000E-004	  3.08964E-001	  3.13581E-001	  2.93726E-001	  3.35007E-001
  2.25000E-004	  3.10178E-001	  3.13183E-001	  3.09289E-001	  3.38600E-001
  2.50000E-004	  3.16347E-001	  3.12825E-001	  3.04444E-001	  3.36432E-001
  2.75000E-004	  3.20109E-001	  3.17004E-001	  3.09191E-001	  3.31188E-001
  3.00000E-004	  3.10775E-001	  3.04068E-001	  3.02535E-001	  3.29343E-001
  3.25000E-004	  3.03014E-001	  3.05501E-001	  3.16581E-001	  3.32450E-001
  3.50000E-004	  3.10775E-001	  3.06536E-001	  3.10708E-001	  3.33421E-001
  3.75000E-004	  3.14616E-001	  3.17681E-001	  3.18588E-001	  3.27627E-001
  4.00000E-004	  3.17462E-001	  3.18437E-001	  3.07992E-001	  3.19664E-001
  4.50000E-004	  3.14765E-001	  3.13780E-001	  3.14159E-001	  3.26996E-001
  5.00000E-004	  3.10367E-001	  3.11551E-001	  3.07136E-001	  3.27837E-001
  5.50000E-004	  3.07482E-001	  3.11452E-001	  3.18710E-001	  3.23937E-001
  6.00000E-004	  3.13233E-001	  3.13044E-001	  3.14795E-001	  3.21962E-001
  6.50000E-004	  3.14208E-001	  3.15989E-001	  3.11663E-001	  3.19712E-001
  7.00000E-004	  3.09372E-001	  3.16387E-001	  2.99550E-001	  3.13352E-001
  7.50000E-004	  3.14606E-001	  3.19114E-001	  3.13376E-001	  3.22804E-001
  8.00000E-004	  3.09820E-001	  3.12159E-001	  3.09375E-001	  3.17196E-001
  9.00000E-004	  3.10308E-001	  3.15492E-001	  3.10244E-001	  3.20044E-001
  1.00000E-003	  3.08840E-001	  3.10845E-001	  3.05680E-001	  3.22011E-001
  1.10000E-003	  3.09099E-001	  3.05820E-001	  3.08054E-001	  3.19308E-001
  1.20000E-003	  3.04546E-001	  3.04705E-001	  3.12678E-001	  3.19810E-001
  1.30000E-003	  3.11467E-001	  3.13571E-001	  3.04481E-001	  3.19607E-001
  1.40000E-003	  3.08686E-001	  3.06626E-001	  3.13841E-001	  3.17374E-001
  1.50000E-003	  3.08845E-001	  3.08735E-001	  3.05191E-001	  3.19405E-001
  1.60000E-003	  3.04584E-001	  3.04352E-001	  3.10837E-001	  3.13413E-001
  1.80000E-003	  3.08546E-001	  3.07009E-001	  3.10837E-001	  3.16156E-001
  2.00000E-003	  3.06770E-001	  3.08298E-001	  3.08378E-001	  3.15755E-001
  2.20000E-003	  3.09701E-001	  3.12084E-001	  3.13529E-001	  3.08322E-001
  2.40000E-003	  3.08949E-001	  3.07711E-001	  3.11125E-001	  3.14958E-001
  2.60000E-003	  3.07312E-001	  3.09298E-001	  3.08867E-001	  3.12696E-001
  2.80000E-003	  3.06489E-001	  3.09402E-001	  3.01850E-001	  3.13040E-001
  3.00000E-003	  3.02842E-001	  3.02850E-001	  3.11124E-001	  3.11782E-001
  3.20000E-003	  3.05251E-001	  3.05049E-001	  3.10021E-001	  3.10425E-001
  3.60000E-003	  3.03835E-001	  3.04290E-001	  3.06347E-001	  3.10684E-001
  4.00000E-003	  3.04600E-001	  3.06405E-001	  3.07540E-001	  3.12697E-001
  4.40000E-003	  3.02576E-001	  3.03377E-001	  3.05555E-001	  3.09126E-001
  4.80000E-003	  3.02738E-001	  3.03455E-001	  3.06121E-001	  3.09243E-001
  5.20000E-003	  3.03331E-001	  3.02325E-001	  3.06066E-001	  3.08468E-001
  5.60000E-003	  3.01176E-001	  3.01318E-001	  3.06989E-001	  3.06868E-001
  6.00000E-003	  3.01178E-001	  3.01201E-001	  3.02358E-001	  3.04643E-001
  6.40000E-003	  2.99845E-001	  2.98415E-001	  3.02429E-001	  3.06638E-001
  7.20000E-003	  2.98649E-001	  2.98064E-001	  3.03492E-001	  3.04728E-001
  8.00000E-003	  2.96999E-001	  2.97457E-001	  3.01037E-001	  3.03711E-001
  8.80000E-003	  2.96040E-001	  2.95850E-001	  3.02255E-001	  3.02634E-001
  9.60000E-003	  2.93958E-001	  2.94474E-001	  2.99404E-001	  3.00023E-001
  1.04000E-002	  2.91772E-001	  2.92161E-001	  2.96839E-001	  3.00396E-001
  1.12000E-002	  2.91009E-001	  2.90900E-001	  2.99783E-001	  2.96442E-001
  1.20000E-002	  2.90543E-001	  2.90949E-001	  2.95348E-001	  2.95330E-001
  1.28000E-002	  2.88814E-001	  2.89049E-001	  2.96042E-001	  2.93496E-001
  1.44000E-002	  2.86834E-001	  2.86812E-001	  2.93024E-001	  2.91375E-001
  1.60000E-002	  2.83245E-001	  2.83405E-001	  2.88807E-001	  2.90335E-001
  1.76000E-002	  2.80967E-001	  2.81584E-001	  2.86416E-001	  2.87430E-001
  1.92000E-002	  2.78144E-001	  2.78544E-001	  2.83267E-001	  2.84119E-001
  2.08000E-002	  2.77068E-001	  2.77480E-001	  2.84642E-001	  2.81921E-001
  2.24000E-002	  2.73541E-001	  2.74006E-001	  2.78980E-001	  2.77972E-001
  2.40000E-002	  2.71862E-001	  2.71531E-001	  2.77459E-001	  2.76771E-001
  2.56000E-002	  2.69556E-001	  2.68849E-001	  2.74447E-001	  2.73288E-001
  2.88000E-002	  2.63455E-001	  2.63779E-001	  2.68923E-001	  2.68601E-001
  3.20000E-002	  2.59997E-001	  2.60595E-001	  2.65828E-001	  2.64008E-001
  3.52000E-002	  2.55536E-001	  2.55886E-001	  2.59492E-001	  2.58326E-001
  3.84000E-002	  2.50438E-001	  2.50779E-001	  2.55934E-001	  2.55444E-001
  4.16000E-002	  2.46611E-001	  2.46576E-001	  2.51434E-001	  2.50755E-001
  4.48000E-002	  2.42810E-001	  2.42959E-001	  2.46057E-001	  2.45882E-001
  4.80000E-002	  2.38475E-001	  2.38587E-001	  2.41994E-001	  2.41394E-001
  5.12000E-002	  2.33883E-001	  2.34169E-001	  2.37694E-001	  2.37734E-001
  5.76000E-002	  2.25742E-001	  2.25325E-001	  2.30806E-001	  2.29368E-001
  6.40000E-002	  2.17776E-001	  2.17521E-001	  2.22879E-001	  2.22552E-001
  7.04000E-002	  2.10969E-001	  2.10624E-001	  2.14982E-001	  2.15401E-001
  7.68000E-002	  2.03776E-001	  2.03697E-001	  2.07781E-001	  2.07086E-001
  8.32000E-002	  1.96304E-001	  1.96626E-001	  2.01221E-001	  2.00239E-001
  8.96000E-002	  1.90185E-001	  1.90007E-001	  1.93686E-001	  1.93603E-001
  9.60000E-002	  1.83359E-001	  1.82924E-001	  1.87360E-001	  1.87063E-001
  1.02400E-001	  1.77754E-001	  1.77541E-001	  1.81331E-001	  1.80799E-001
  1.15200E-001	  1.66028E-001	  1.66080E-001	  1.69059E-001	  1.68915E-001
  1.28000E-001	  1.54946E-001	  1.54728E-001	  1.57974E-001	  1.57572E-001
  1.40800E-001	  1.45276E-001	  1.44896E-001	  1.47532E-001	  1.47245E-001
  1.53600E-001	  1.35442E-001	  1.35234E-001	  1.38112E-001	  1.38004E-001
  1.66400E-001	  1.26613E-001	  1.26299E-001	  1.28510E-001	  1.29019E-001
  1.79200E-001	  1.18600E-001	  1.18226E-001	  1.20811E-001	  1.20590E-001
  1.92000E-001	  1.10708E-001	  1.10200E-001	  1.12682E-001	  1.12876E-001
  2.04800E-001	  1.03768E-001	  1.03921E-001	  1.05653E-001	  1.05753E-001
  2.30400E-001	  9.07398E-002	  9.05846E-002	  9.19398E-002	  9.17627E-002
  2.56000E-001	  7.92607E-002	  7.93377E-002	  8.06516E-002	  8.03953E-002
  2.81600E-001	  6.90706E-002	  6.90480E-002	  7.09225E-002	  7.00006E-002
  3.07200E-001	  6.05390E-002	  6.08873E-002	  6.18346E-002	  6.11293E-002
  3.32800E-001	  5.27387E-002	  5.26456E-002	  5.38987E-002	  5.35096E-002
  3.58400E-001	  4.64204E-002	  4.64551E-002	  4.73458E-002	  4.70189E-002
  3.84000E-001	  4.08189E-002	  4.10717E-002	  4.17824E-002	  4.09692E-002
  4.09600E-001	  3.60226E-002	  3.61764E-002	  3.66749E-002	  3.64273E-002
  4.60800E-001	  2.76059E-002	  2.76303E-002	  2.83693E-002	  2.84096E-002
  5.12000E-001	  2.14325E-002	  2.13369E-002	  2.21287E-002	  2.17789E-002
  5.63200E-001	  1.65735E-002	  1.65272E-002	  1.68109E-002	  1.70553E-002
  6.14400E-001	  1.27914E-002	  1.26982E-002	  1.30053E-002	  1.33170E-002
  6.65600E-001	  1.01764E-002	  9.92213E-003	  1.04243E-002	  1.05436E-002
  7.16800E-001	  7.99510E-003	  7.56259E-003	  7.95153E-003	  8.16177E-003
  7.68000E-001	  5.93459E-003	  5.53188E-003	  5.87738E-003	  6.11723E-003
  8.19200E-001	  4.52677E-003	  4.24393E-003	  4.54347E-003	  4.63213E-003
  9.21600E-001	  2.97375E-003	  2.90879E-003	  2.95315E-003	  2.96360E-003
  1.02400E+000	  2.01209E-003	  1.87602E-003	  1.79015E-003	  2.18043E-003
  1.12640E+000	  1.06107E-003	  9.59463E-004	  1.02090E-003	  1.42699E-003
  1.22880E+000	  6.49367E-004	  6.39998E-004	  3.19137E-004	  7.92367E-004
  1.33120E+000	  1.73359E-004	  3.62989E-004	 -1.21349E-004	  2.39438E-004
  1.43360E+000	  2.97948E-004	  4.02414E-004	  2.23519E-004	 -1.95273E-004
  1.53600E+000	  1.48934E-004	  1.13635E-004	  1.62856E-004	 -2.32637E-004
  1.63840E+000	  2.00495E-004	  6.74044E-006	  1.33215E-004	  1.63354E-004
  1.84320E+000	  3.81050E-004	  4.87520E-004	 -1.80621E-006	  7.50728E-004
  2.04800E+000	  3.83640E-004	  5.94197E-004	  5.43724E-005	  3.95749E-004
  2.25280E+000	 -3.30291E-005	  5.29026E-006	  5.32506E-006	  7.65464E-005
  2.45760E+000	 -3.67661E-004	 -3.66575E-004	 -2.04797E-004	 -2.55285E-004
  2.66240E+000	  3.54891E-004	  3.18205E-004	  3.65178E-004	  5.23691E-004
  2.86720E+000	  3.68619E-004	  1.91653E-004	  2.91129E-004	  6.16240E-004
  3.07200E+000	  6.95579E-004	  7.79665E-004	  6.04559E-004	  9.28031E-004
  3.27680E+000	  1.04046E-003	  1.21254E-003	  9.50491E-004	  1.15741E-003
  3.68640E+000	 -2.65388E-005	  1.36457E-004	  8.83563E-005	  1.09451E-005
  4.09600E+000	  2.82782E-005	  2.44484E-004	  2.45409E-005	  5.14166E-005
  4.50560E+000	  4.01584E-004	  2.75371E-004	  4.34785E-004	  3.29570E-004
  4.91520E+000	  2.53175E-004	 -6.96492E-007	  1.61290E-004	  2.67231E-004
  5.32480E+000	 -4.44232E-005	  1.05302E-004	  2.88454E-004	 -2.56823E-004
  5.73440E+000	  5.93520E-005	  3.25128E-004	  7.72533E-005	 -1.63040E-004
  6.14400E+000	  4.18396E-004	  5.14387E-004	  3.10935E-004	  4.56578E-004
  6.55360E+000	  6.55464E-004	  7.90880E-004	  6.75785E-004	  6.39281E-004
  7.37280E+000	  9.58657E-004	  8.34831E-004	  8.38631E-004	  1.07056E-003
  8.19200E+000	  1.17638E-003	  1.02285E-003	  1.26992E-003	  1.13115E-003
  9.01120E+000	  9.17769E-004	  1.05306E-003	  9.58523E-004	  8.33438E-004
  9.83040E+000	  2.08707E-004	  1.44586E-004	  1.97603E-004	  8.45372E-005
  1.06496E+001	  4.18788E-004	  4.19103E-004	  5.54139E-005	  8.45573E-004
  1.14688E+001	  1.71397E-004	  4.27260E-006	 -1.91537E-004	  4.34350E-004
  1.22880E+001	  3.37860E-004	  3.57164E-004	  4.74625E-004	  1.70116E-004
  1.31072E+001	  2.02079E-004	  1.79898E-004	  1.81182E-004	  2.66089E-004
  1.47456E+001	  3.51350E-004	  4.44570E-004	  1.65386E-004	  4.68160E-004
  1.63840E+001	  6.26554E-004	  7.46898E-004	  4.49194E-004	  8.07407E-004
  1.80224E+001	  3.23085E-005	 -4.20224E-006	  3.53046E-005	  1.78376E-004
  1.96608E+001	 -3.24564E-005	 -8.90554E-006	  6.67117E-006	 -1.51834E-004
  2.12992E+001	  7.28896E-005	 -1.61977E-004	 -8.71409E-006	  1.98181E-004
  2.29376E+001	  1.14435E-004	  7.14338E-005	  5.46048E-005	  1.09007E-004
  2.45760E+001	  6.21575E-004	  6.09455E-004	  7.07503E-004	  5.70550E-004
  2.62144E+001	  5.22471E-004	  4.89704E-004	  4.68818E-004	  5.78372E-004
  2.94912E+001	  2.85365E-004	  3.29032E-004	  3.98426E-004	  1.88335E-004
  3.27680E+001	  5.71215E-004	  6.13442E-004	  6.01765E-004	  5.36038E-004
  3.60448E+001	  3.72074E-004	  4.09613E-004	  4.35779E-004	  3.40984E-004
  3.93216E+001	  5.72328E-004	  4.85876E-004	  6.26247E-004	  5.56864E-004
  4.25984E+001	  7.02493E-004	  8.01145E-004	  6.33940E-004	  7.70451E-004
  4.58752E+001	  1.24820E-004	  6.13199E-005	  8.00358E-005	  1.50947E-004
  4.91520E+001	  4.63956E-004	  3.96998E-004	  4.77004E-004	  4.65858E-004
  5.24288E+001	  3.13955E-004	  3.15908E-004	  3.03927E-004	  3.25553E-004
  5.89824E+001	  1.72271E-004	  1.49339E-004	  1.91040E-004	  2.19849E-004
  6.55360E+001	  4.92561E-004	  5.28085E-004	  4.55058E-004	  4.94115E-004
  7.20896E+001	 -1.92626E-004	 -1.43299E-004	 -1.49678E-004	 -1.79146E-004
  7.86432E+001	  4.01450E-004	  4.70340E-004	  3.71856E-004	  3.76708E-004
  8.51968E+001	  2.51493E-004	  3.11244E-004	  2.14665E-004	  3.33396E-004
  9.17504E+001	  4.31084E-004	  5.76204E-004	  3.63782E-004	  5.08738E-004
  9.83040E+001	  6.86621E-004	  7.78008E-004	  7.67545E-004	  6.06100E-004
  1.04858E+002	  4.90581E-004	  5.54831E-004	  4.37433E-004	  5.02682E-004
  1.17965E+002	  3.40292E-004	  3.41274E-004	  3.08540E-004	  3.75054E-004
  1.31072E+002	  2.55005E-004	  2.96120E-004	  2.02416E-004	  3.12671E-004
  1.44179E+002	  4.04746E-004	  3.22019E-004	  3.59883E-004	  4.31190E-004
  1.57286E+002	  3.24465E-004	  3.33444E-004	  3.36735E-004	  3.16678E-004
  1.70394E+002	  2.61007E-004	  2.26644E-004	  2.37972E-004	  2.92116E-004
  1.83501E+002	  7.39474E-005	  4.52658E-005	  5.97196E-005	  6.25976E-005
  1.96608E+002	  5.43264E-004	  5.15314E-004	  5.17658E-004	  5.19595E-004
  2.09715E+002	  2.74618E-004	  2.66861E-004	  2.47945E-004	  2.82954E-004
  2.35930E+002	  1.92703E-004	  1.91174E-004	  2.10684E-004	  1.83817E-004
  2.62144E+002	  1.35243E-004	  1.51245E-004	  1.66863E-004	  1.38078E-004
  2.88358E+002	  4.12964E-004	  4.53844E-004	  3.73944E-004	  4.46728E-004
  3.14573E+002	  2.41656E-004	  2.41094E-004	  2.66236E-004	  2.03772E-004
  3.40787E+002	  8.06973E-005	  1.10660E-004	  7.99443E-005	  6.38620E-005
  3.67002E+002	  2.32943E-004	  2.22110E-004	  2.03957E-004	  2.49599E-004
  3.93216E+002	  1.01084E-004	  1.09839E-004	  6.14337E-005	  1.53149E-004
  4.19430E+002	  2.61973E-004	  2.59247E-004	  2.56735E-004	  2.64624E-004
  4.71859E+002	  8.23696E-005	  9.52806E-005	  7.18305E-005	  9.00728E-005
  5.24288E+002	  3.55138E-004	  3.70179E-004	  3.68436E-004	  3.41879E-004
  5.76717E+002	  1.81197E-004	  1.72507E-004	  1.60433E-004	  2.06453E-004
  6.29146E+002	  2.60823E-004	  2.48769E-004	  2.38722E-004	  2.94076E-004
  6.81574E+002	  2.68913E-004	  2.77513E-004	  2.64091E-004	  2.81755E-004
  7.34003E+002	  2.76366E-004	  2.56500E-004	  2.80221E-004	  2.90926E-004
  7.86432E+002	  1.46266E-004	  1.64097E-004	  1.26660E-004	  1.66696E-004
  8.38861E+002	  2.64682E-004	  2.78532E-004	  2.52952E-004	  2.89236E-004
  9.43718E+002	  1.52108E-004	  1.55686E-004	  1.45357E-004	  1.61333E-004
  1.04858E+003	  2.71219E-004	  2.70120E-004	  2.77416E-004	  2.66327E-004
  1.15343E+003	  2.24796E-004	  2.39875E-004	  2.48933E-004	  1.98067E-004
  1.25829E+003	  2.10305E-004	  2.32890E-004	  2.14809E-004	  2.11546E-004
  1.36315E+003	  1.55979E-004	  1.50847E-004	  1.37534E-004	  1.68547E-004
  1.46801E+003	  1.04802E-004	  9.87230E-005	  8.86940E-005	  1.28970E-004
  1.57286E+003	  2.00966E-004	  2.07361E-004	  1.85416E-004	  2.11891E-004
  1.67772E+003	  1.95220E-004	  2.05694E-004	  1.95047E-004	  1.85132E-004
  1.88744E+003	  1.44928E-004	  1.42792E-004	  1.44870E-004	  1.29172E-004
  2.09715E+003	  1.64966E-004	  1.70225E-004	  1.74131E-004	  1.55185E-004
  2.30687E+003	  2.43400E-004	  2.57359E-004	  2.44741E-004	  2.39493E-004
  2.51658E+003	  1.75418E-004	  1.68266E-004	  1.73293E-004	  1.67165E-004
  2.72630E+003	  2.50598E-004	  2.63596E-004	  2.47104E-004	  2.49740E-004
  2.93601E+003	  1.44415E-004	  1.52686E-004	  1.31469E-004	  1.55270E-004
  3.14573E+003	  1.79390E-004	  1.73281E-004	  1.67739E-004	  1.86942E-004
  3.35544E+003	  1.53061E-004	  1.52009E-004	  1.57338E-004	  1.49287E-004
  3.77487E+003	  1.59297E-004	  1.52948E-004	  1.61810E-004	  1.58037E-004
  4.19430E+003	  1.46138E-004	  1.34851E-004	  1.62905E-004	  1.29894E-004
  4.61373E+003	  1.15845E-004	  1.11528E-004	  1.23538E-004	  1.04913E-004
  5.03317E+003	  1.09899E-004	  9.61753E-005	  1.45386E-004	  7.19746E-005
  5.45260E+003	  1.08354E-004	  9.49753E-005	  1.21881E-004	  9.47561E-005
  5.87203E+003	  1.39187E-004	  1.33305E-004	  1.56635E-004	  1.20020E-004
  6.29146E+003	  1.13150E-004	  1.20648E-004	  1.22387E-004	  1.06201E-004
  6.71089E+003	  1.48031E-004	  1.61025E-004	  1.44502E-004	  1.47916E-004
  7.54975E+003	  1.76320E-004	  1.77937E-004	  1.72186E-004	  1.78611E-004
  8.38861E+003	  1.82412E-004	  1.68620E-004	  1.84318E-004	  1.76409E-004
  9.22747E+003	  1.08876E-004	  9.84982E-005	  1.10814E-004	  1.07860E-004
  1.00663E+004	  1.41784E-004	  1.21317E-004	  1.41137E-004	  1.49416E-004
  1.09052E+004	  1.49141E-004	  1.33729E-004	  1.48079E-004	  1.54249E-004
  1.17441E+004	  1.02327E-004	  1.00431E-004	  1.14222E-004	  8.93225E-005

"Count Rate"
       0.27344	     106.81496	     129.76472	     106.81496	     129.76472
       0.54688	     106.84421	     130.52155	     106.84421	     130.52155
       0.82031	     109.68504	     137.01125	     109.68504	     137.01125
       1.09375	     106.50418	     131.47581	     106.50418	     131.47581
       1.36719	     109.09275	     135.20511	     109.09275	     135.20511
       1.64063	     107.61931	     130.55446	     107.61931	     130.55446
       1.91406	     102.34346	     126.76666	     102.34346	     126.76666
       2.18750	     105.29399	     131.32591	     105.29399	     131.32591
       2.46094	     107.36338	     130.75554	     107.36338	     130.75554
       2.73438	     106.91002	     130.93835	     106.91002	     130.93835
       3.00781	     106.22631	     132.18510	     106.22631	     132.18510
       3.28125	     106.57730	     129.15781	     106.57730	     129.15781
       3.55469	     105.91920	     130.15959	     105.91920	     130.15959
       3.82813	     110.67587	     135.64018	     110.67587	     135.64018
       4.10156	     103.74012	     126.82151	     103.74012	     126.82151
       4.37500	     108.88800	     132.83591	     108.88800	     132.83591
       4.64844	     108.96113	     133.94373	     108.96113	     133.94373
       4.92188	     108.58089	     134.01318	     108.58089	     134.01318
       5.19531	     109.94463	     136.11183	     109.94463	     136.11183
       5.46875	     113.49843	     140.15921	     113.49843	     140.15921
       5.74219	     112.77085	     139.65466	     112.77085	     139.65466
       6.01563	     110.08357	     135.95096	     110.08357	     135.95096
       6.28906	     109.22437	     133.32948	     109.22437	     133.32948
       6.56250	     108.69423	     135.11369	     108.69423	     135.11369
       6.83594	     106.67968	     133.47574	     106.67968	     133.47574
       7.10938	     107.54984	     132.02058	     107.54984	     132.02058
       7.38281	     113.33756	     139.85210	     113.33756	     139.85210
       7.65625	     109.60095	     133.62198	     109.60095	     133.62198
       7.92969	     112.06155	     139.77531	     112.06155	     139.77531
       8.20313	     111.07805	     137.44633	     111.07805	     137.44633
       8.47656	     116.20399	     142.46625	     116.20399	     142.46625
       8.75000	     106.92830	     132.03154	     106.92830	     132.03154
       9.02344	     112.53686	     139.76068	     112.53686	     139.76068
       9.29688	     113.37047	     139.37679	     113.37047	     139.37679
       9.57031	     111.83853	     135.95827	     111.83853	     135.95827
       9.84375	     111.80563	     137.34761	     111.80563	     137.34761
      10.11719	     113.84211	     139.44626	     113.84211	     139.44626
      10.39063	     108.72347	     133.15399	     108.72347	     133.15399
      10.66406	     112.19318	     138.55780	     112.19318	     138.55780
      10.93750	     111.82391	     135.57437	     111.82391	     135.57437
      11.21094	     111.82025	     138.09348	     111.82025	     138.09348
      11.48438	     110.06895	     133.02237	     110.06895	     133.02237
      11.75781	     115.09983	     141.02573	     115.09983	     141.02573
      12.03125	     111.22063	     136.47379	     111.22063	     136.47379
      12.30469	     113.10722	     138.15198	     113.10722	     138.15198
      12.57813	     108.19333	     131.99498	     108.19333	     131.99498
      12.85156	     107.64856	     134.55431	     107.64856	     134.55431
      13.12500	     110.11282	     136.21786	     110.11282	     136.21786
      13.39844	     110.83308	     134.89433	     110.83308	     134.89433
      13.67188	     110.51134	     138.13004	     110.51134	     138.13004
      13.94531	     106.92830	     131.15407	     106.92830	     131.15407
      14.21875	     110.05798	     133.81575	     110.05798	     133.81575
      14.49219	     106.32503	     131.28203	     106.32503	     131.28203
      14.76563	     109.99216	     135.98387	     109.99216	     135.98387
      15.03906	     108.96113	     133.42455	     108.96113	     133.42455
      15.31250	     110.48940	     135.28554	     110.48940	     135.28554
      15.58594	     111.79465	     135.73524	     111.79465	     135.73524
      15.85938	     118.56953	     146.43320	     118.56953	     146.43320
      16.13281	     122.39023	     150.64876	     122.39023	     150.64876
      16.40625	     117.70668	     145.04019	     117.70668	     145.04019
      16.67969	     109.32674	     134.62012	     109.32674	     134.62012
      16.95313	     113.98104	     139.32561	     113.98104	     139.32561
      17.22656	     108.92822	     135.67310	     108.92822	     135.67310
      17.50000	     110.81846	     135.79008	     110.81846	     135.79008
      17.77344	     110.44919	     137.84120	     110.44919	     137.84120
      18.04688	     104.77116	     129.33694	     104.77116	     129.33694
      18.32031	     112.58804	     139.83746	     112.58804	     139.83746
      18.59375	     113.75071	     139.77531	     113.75071	     139.77531
      18.86719	     107.84599	     133.61101	     107.84599	     133.61101
      19.14063	     110.47112	     138.97095	     110.47112	     138.97095
      19.41406	     110.97933	     135.98021	     110.97933	     135.98021
      19.68750	     103.54269	     127.49790	     103.54269	     127.49790
      19.96094	     108.85144	     132.14124	     108.85144	     132.14124
      20.23438	     107.26466	     133.15033	     107.26466	     133.15033
      20.50781	     105.99963	     128.25838	     105.99963	     128.25838
      20.78125	     109.42546	     133.54155	     109.42546	     133.54155
      21.05469	     107.27563	     130.77748	     107.27563	     130.77748
      21.32813	     107.29391	     127.54543	     107.29391	     127.54543
      21.60156	     111.09998	     135.40619	     111.09998	     135.40619
      21.87500	     110.09454	     134.46291	     110.09454	     134.46291
      22.14844	     108.36883	     131.36247	     108.36883	     131.36247
      22.42188	     107.19520	     132.05348	     107.19520	     132.05348
      22.69531	     108.29205	     131.30763	     108.29205	     131.30763
      22.96875	     108.55529	     133.43552	     108.55529	     133.43552
      23.24219	     107.88987	     134.24719	     107.88987	     134.24719
      23.51563	     105.80219	     132.06445	     105.80219	     132.06445
      23.78906	     107.13304	     130.60199	     107.13304	     130.60199
      24.06250	     113.69586	     139.27077	     113.69586	     139.27077
      24.33594	     110.91352	     137.28546	     110.91352	     137.28546
      24.60938	     107.60835	     131.12115	     107.60835	     131.12115
      24.88281	     111.30107	     137.17212	     111.30107	     137.17212
      25.15625	     109.19878	     133.48671	     109.19878	     133.48671
      25.42969	     112.80010	     138.10809	     112.80010	     138.10809
      25.70313	     105.91188	     130.29852	     105.91188	     130.29852
      25.97656	     104.73825	     126.81785	     104.73825	     126.81785
      26.25000	     108.42367	     132.63481	     108.42367	     132.63481
      26.52344	     107.13670	     132.91269	     107.13670	     132.91269
      26.79688	     108.76735	     134.34224	     108.76735	     134.34224
      27.07031	     110.43822	     134.20697	     110.43822	     134.20697
      27.34375	     110.27003	     137.53773	     110.27003	     137.53773
      27.61719	     109.67043	     133.90350	     109.67043	     133.90350
      27.89063	     106.85517	     131.77562	     106.85517	     131.77562
      28.16406	     111.55701	     137.05147	     111.55701	     137.05147
      28.43750	     105.68520	     131.32591	     105.68520	     131.32591
      28.71094	     107.35241	     131.58183	     107.35241	     131.58183
      28.98438	     108.77466	     133.15399	     108.77466	     133.15399
      29.25781	     107.70706	     131.86702	     107.70706	     131.86702
      29.53125	     108.68691	     133.08818	     108.68691	     133.08818
      29.80469	     107.84599	     130.91641	     107.84599	     130.91641
      30.07813	     108.24086	     133.40993	     108.24086	     133.40993
      30.35156	     105.59745	     130.08647	     105.59745	     130.08647
      30.62500	     103.69259	     126.67526	     103.69259	     126.67526
      30.89844	     106.75280	     132.57266	     106.75280	     132.57266
      31.17188	     110.08357	     136.41164	     110.08357	     136.41164
      31.44531	     105.28302	     128.70078	     105.28302	     128.70078
      31.71875	     106.19706	     131.45753	     106.19706	     131.45753
      31.99219	     111.13289	     135.19414	     111.13289	     135.19414
      32.26563	     110.31757	     137.12459	     110.31757	     137.12459
      32.53906	     107.26832	     130.91277	     107.26832	     130.91277
      32.81250	     102.02172	     124.92761	     102.02172	     124.92761
      33.08594	     110.74534	     136.19226	     110.74534	     136.19226
      33.35938	     109.55343	     134.33859	     109.55343	     134.33859
      33.63281	     107.12573	     131.39537	     107.12573	     131.39537
      33.90625	     108.31399	     133.03699	     108.31399	     133.03699
      34.17969	     110.09088	     138.14832	     110.09088	     138.14832
      34.45313	     108.08365	     133.91081	     108.08365	     133.91081
      34.72656	     108.21893	     134.30934	     108.21893	     134.30934
      35.00000	     106.90636	     132.46298	     106.90636	     132.46298
      35.27344	     105.34152	     129.47223	     105.34152	     129.47223
      35.54688	     108.30302	     133.36240	     108.30302	     133.36240
      35.82031	     112.93172	     139.18668	     112.93172	     139.18668
      36.09375	     106.57730	     131.00050	     106.57730	     131.00050
      36.36719	     112.01037	     136.93082	     112.01037	     136.93082
      36.64063	     104.21908	     127.88545	     104.21908	     127.88545
      36.91406	     100.43128	     123.61139	     100.43128	     123.61139
      37.18750	     108.75638	     133.03334	     108.75638	     133.03334
      37.46094	     108.56626	     133.37701	     108.56626	     133.37701
      37.73438	     107.47672	     132.91634	     107.47672	     132.91634
      38.00781	     109.37428	     134.69690	     109.37428	     134.69690
      38.28125	     109.44009	     134.55431	     109.44009	     134.55431
      38.55469	     107.73631	     132.32770	     107.73631	     132.32770
      38.82813	     107.95568	     133.80479	     107.95568	     133.80479
      39.10156	     107.77653	     132.59094	     107.77653	     132.59094
      39.37500	     109.00866	     133.48305	     109.00866	     133.48305
      39.64844	     106.52246	     131.51237	     106.52246	     131.51237
      39.92188	     107.47672	     131.96573	     107.47672	     131.96573
      40.19531	     104.13499	     128.90552	     104.13499	     128.90552
      40.46875	     105.22086	     130.10475	     105.22086	     130.10475
      40.74219	     109.86054	     133.63661	     109.86054	     133.63661
      41.01563	     107.44747	     133.65123	     107.44747	     133.65123
      41.28906	     110.13841	     135.38791	     110.13841	     135.38791
      41.56250	     107.59737	     130.23271	     107.59737	     130.23271
      41.83594	     107.76556	     133.75360	     107.76556	     133.75360
      42.10938	     104.21176	     126.90926	     104.21176	     126.90926
      42.38281	     104.83331	     130.11937	     104.83331	     130.11937
      42.65625	     110.05432	     135.09908	     110.05432	     135.09908
      42.92969	     103.29041	     127.13960	     103.29041	     127.13960
      43.20313	     105.78391	     128.34979	     105.78391	     128.34979
      43.47656	     102.92113	     126.58385	     102.92113	     126.58385
      43.75000	     107.80943	     131.94380	     107.80943	     131.94380
      44.02344	     106.61752	     131.56721	     106.61752	     131.56721
      44.29688	     103.06738	     127.23100	     103.06738	     127.23100
      44.57031	     105.69982	     128.00977	     105.69982	     128.00977
      44.84375	     108.07268	     134.73346	     108.07268	     134.73346
      45.11719	     105.63036	     129.62579	     105.63036	     129.62579
      45.39063	     110.34682	     136.17398	     110.34682	     136.17398
      45.66406	     104.78578	     130.13034	     104.78578	     130.13034
      45.93750	     106.95023	     130.30949	     106.95023	     130.30949
      46.21094	     106.44202	     132.27650	     106.44202	     132.27650
      46.48438	     108.39442	     132.91269	     108.39442	     132.91269
      46.75781	     105.50605	     127.31509	     105.50605	     127.31509
      47.03125	     107.37801	     131.40634	     107.37801	     131.40634
      47.30469	     104.18617	     127.62221	     104.18617	     127.62221
      47.57813	     106.97583	     133.69876	     106.97583	     133.69876
      47.85156	     107.72534	     132.38254	     107.72534	     132.38254
      48.12500	     108.44560	     134.56528	     108.44560	     134.56528
      48.39844	     105.00150	     130.87621	     105.00150	     130.87621
      48.67188	     107.82771	     132.52147	     107.82771	     132.52147
      48.94531	     108.90263	     132.78838	     108.90263	     132.78838
      49.21875	     107.14767	     131.06631	     107.14767	     131.06631
      49.49219	     111.24623	     136.12280	     111.24623	     136.12280
      49.76563	     105.80585	     129.63310	     105.80585	     129.63310
      50.03906	     107.79481	     131.42462	     107.79481	     131.42462
      50.31250	     110.70146	     134.65668	     110.70146	     134.65668
      50.58594	     109.87151	     133.99490	     109.87151	     133.99490
      50.85938	     106.08372	     132.56169	     106.08372	     132.56169
      51.13281	     106.81861	     132.03520	     106.81861	     132.03520
      51.40625	     110.63931	     135.80472	     110.63931	     135.80472
      51.67969	     106.25191	     131.15773	     106.25191	     131.15773
      51.95313	     106.17878	     131.11385	     106.17878	     131.11385
      52.22656	     110.17863	     138.17757	     110.17863	     138.17757
      52.50000	     111.79100	     137.54140	     111.79100	     137.54140
      52.77344	     103.99605	     126.89098	     103.99605	     126.89098
      53.04688	     107.09283	     131.65497	     107.09283	     131.65497
      53.32031	     105.57186	     131.87799	     105.57186	     131.87799
      53.59375	     109.76914	     134.09363	     109.76914	     134.09363
      53.86719	     106.63946	     132.60191	     106.63946	     132.60191
      54.14063	     101.64513	     126.15243	     101.64513	     126.15243
      54.41406	     105.78391	     130.44476	     105.78391	     130.44476
      54.68750	     109.51321	     135.20511	     109.51321	     135.20511
      54.96094	     103.22459	     127.64414	     103.22459	     127.64414
      55.23438	     107.18423	     128.76294	     107.18423	     128.76294
      55.50781	     105.45852	     130.88716	     105.45852	     130.88716
      55.78125	     107.34510	     131.51602	     107.34510	     131.51602
      56.05469	     102.27399	     126.00984	     102.27399	     126.00984
      56.32813	     105.95941	     130.66048	     105.95941	     130.66048
      56.60156	     105.72176	     130.48134	     105.72176	     130.48134
      56.87500	     108.36517	     131.51237	     108.36517	     131.51237
      57.14844	     109.49858	     133.41724	     109.49858	     133.41724
      57.42188	     104.64685	     129.26382	     104.64685	     129.26382
      57.69531	     106.51515	     130.04991	     106.51515	     130.04991
      57.96875	     103.80959	     128.00610	     103.80959	     128.00610
      58.24219	     107.26466	     132.94925	     107.26466	     132.94925
      58.51563	     105.83876	     130.24368	     105.83876	     130.24368
      58.78906	     106.66139	     133.40627	     106.66139	     133.40627
      59.06250	     105.34518	     128.67519	     105.34518	     128.67519
      59.33594	     107.30488	     131.57819	     107.30488	     131.57819
      59.60938	     105.17333	     130.29121	     105.17333	     130.29121
      59.88281	     103.38547	     126.66795	     103.38547	     126.66795
      60.15625	     106.45665	     130.38628	     106.45665	     130.38628
      60.42969	     106.97583	     129.31502	     106.97583	     129.31502
      60.70313	     108.93919	     132.29845	     108.93919	     132.29845
      60.97656	     104.73094	     129.13951	     104.73094	     129.13951
      61.25000	     106.27019	     132.81763	     106.27019	     132.81763
      61.52344	     105.14043	     126.95679	     105.14043	     126.95679
      61.79688	     109.38158	     135.21606	     109.38158	     135.21606
      62.07031	     109.78376	     136.07527	     109.78376	     136.07527
      62.34375	     110.13841	     134.56161	     110.13841	     134.56161
      62.61719	     106.80399	     131.07729	     106.80399	     131.07729
      62.89063	     111.31204	     135.24898	     111.31204	     135.24898
      63.16406	     107.93374	     134.23256	     107.93374	     134.23256
      63.43750	     103.30138	     127.45768	     103.30138	     127.45768
      63.71094	     104.83697	     128.96037	     104.83697	     128.96037
      63.98438	     108.82951	     130.76286	     108.82951	     130.76286
      64.25781	     106.03985	     130.25830	     106.03985	     130.25830
      64.53125	     108.31764	     132.20338	     108.31764	     132.20338
      64.80469	     106.57365	     132.42276	     106.57365	     132.42276
      65.07813	     111.60819	     137.96916	     111.60819	     137.96916
      65.35156	     105.92285	     132.32039	     105.92285	     132.32039
      65.62500	     106.61752	     132.52147	     106.61752	     132.52147
      65.89844	     107.29391	     131.46118	     107.29391	     131.46118
      66.17188	     105.42561	     129.98410	     105.42561	     129.98410
      66.44531	     106.49321	     130.60564	     106.49321	     130.60564
      66.71875	     110.01044	     134.91626	     110.01044	     134.91626
      66.99219	     110.28466	     134.68227	     110.28466	     134.68227
      67.26563	     110.62834	     135.07349	     110.62834	     135.07349
      67.53906	     106.17147	     130.71167	     106.17147	     130.71167
      67.81250	     104.66147	     127.70630	     104.66147	     127.70630
      68.08594	     107.60469	     134.21062	     107.60469	     134.21062
      68.35938	     106.28115	     129.38448	     106.28115	     129.38448
      68.63281	     109.94098	     134.85411	     109.94098	     134.85411
      68.90625	      99.13335	     122.08677	      99.13335	     122.08677
      69.17969	     111.89337	     138.95267	     111.89337	     138.95267
      69.45313	     105.12581	     129.77934	     105.12581	     129.77934

Monitor Diode	1633191.10
"StandardDeviation"
  3.12500E-006	  2.35183E-002
  6.25000E-006	  2.35182E-002
  9.37500E-006	  2.35183E-002
  1.25000E-005	  2.35181E-002
  1.56250E-005	  2.35182E-002
  1.87500E-005	  2.35183E-002
  2.18750E-005	  2.35182E-002
  2.50000E-005	  2.35182E-002
  2.81250E-005	  2.35128E-002
  3.12500E-005	  2.34432E-002
  3.43750E-005	  2.35156E-002
  3.75000E-005	  2.32628E-002
  4.06250E-005	  2.34698E-002
  4.37500E-005	  2.35181E-002
  4.68750E-005	  2.34146E-002
  5.00000E-005	  1.65519E-002
  5.62500E-005	  1.65106E-002
  6.25000E-005	  1.66434E-002
  6.87500E-005	  1.64155E-002
  7.50000E-005	  1.66033E-002
  8.12500E-005	  1.65658E-002
  8.75000E-005	  1.64709E-002
  9.37500E-005	  1.65379E-002
  1.00000E-004	  1.17613E-002
  1.12500E-004	  1.17624E-002
  1.25000E-004	  1.16164E-002
  1.37500E-004	  1.17384E-002
  1.50000E-004	  1.17201E-002
  1.62500E-004	  1.16877E-002
  1.75000E-004	  1.17664E-002
  1.87500E-004	  1.16960E-002
  2.00000E-004	  8.30172E-003
  2.25000E-004	  8.30546E-003
  2.50000E-004	  8.32463E-003
  2.75000E-004	  8.33629E-003
  3.00000E-004	  8.30729E-003
  3.25000E-004	  8.28302E-003
  3.50000E-004	  8.30721E-003
  3.75000E-004	  8.31932E-003
  4.00000E-004	  5.92722E-003
  4.50000E-004	  5.92133E-003
  5.00000E-004	  5.91163E-003
  5.50000E-004	  5.90530E-003
  6.00000E-004	  5.91779E-003
  6.50000E-004	  5.92014E-003
  7.00000E-004	  5.90944E-003
  7.50000E-004	  5.92093E-003
  8.00000E-004	  4.23341E-003
  9.00000E-004	  4.23431E-003
  1.00000E-003	  4.23199E-003
  1.10000E-003	  4.23251E-003
  1.20000E-003	  4.22550E-003
  1.30000E-003	  4.23604E-003
  1.40000E-003	  4.23174E-003
  1.50000E-003	  4.23183E-003
  1.60000E-003	  3.06288E-003
  1.80000E-003	  3.06696E-003
  2.00000E-003	  3.06514E-003
  2.20000E-003	  3.06811E-003
  2.40000E-003	  3.06733E-003
  2.60000E-003	  3.06563E-003
  2.80000E-003	  3.06463E-003
  3.00000E-003	  3.06077E-003
  3.20000E-003	  2.26819E-003
  3.60000E-003	  2.26700E-003
  4.00000E-003	  2.26741E-003
  4.40000E-003	  2.26586E-003
  4.80000E-003	  2.26579E-003
  5.20000E-003	  2.26601E-003
  5.60000E-003	  2.26441E-003
  6.00000E-003	  2.26434E-003
  6.40000E-003	  1.73539E-003
  7.20000E-003	  1.73444E-003
  8.00000E-003	  1.73325E-003
  8.80000E-003	  1.73250E-003
  9.60000E-003	  1.73117E-003
  1.04000E-002	  1.72998E-003
  1.12000E-002	  1.72917E-003
  1.20000E-002	  1.72866E-003
  1.28000E-002	  1.39202E-003
  1.44000E-002	  1.39015E-003
  1.60000E-002	  1.38846E-003
  1.76000E-002	  1.38697E-003
  1.92000E-002	  1.38524E-003
  2.08000E-002	  1.38409E-003
  2.24000E-002	  1.38226E-003
  2.40000E-002	  1.38084E-003
  2.56000E-002	  1.17729E-003
  2.88000E-002	  1.17349E-003
  3.20000E-002	  1.17064E-003
  3.52000E-002	  1.16777E-003
  3.84000E-002	  1.16465E-003
  4.16000E-002	  1.16164E-003
  4.48000E-002	  1.15879E-003
  4.80000E-002	  1.15567E-003
  5.12000E-002	  1.03809E-003
  5.76000E-002	  1.03099E-003
  6.40000E-002	  1.02487E-003
  7.04000E-002	  1.01891E-003
  7.68000E-002	  1.01281E-003
  8.32000E-002	  1.00664E-003
  8.96000E-002	  1.00053E-003
  9.60000E-002	  9.94381E-004
  1.02400E-001	  9.25110E-004
  1.15200E-001	  9.11240E-004
  1.28000E-001	  8.99155E-004
  1.40800E-001	  8.87024E-004
  1.53600E-001	  8.75369E-004
  1.66400E-001	  8.63939E-004
  1.79200E-001	  8.53173E-004
  1.92000E-001	  8.43031E-004
  2.04800E-001	  7.94873E-004
  2.30400E-001	  7.75661E-004
  2.56000E-001	  7.59441E-004
  2.81600E-001	  7.44451E-004
  3.07200E-001	  7.30797E-004
  3.32800E-001	  7.18466E-004
  3.58400E-001	  7.07455E-004
  3.84000E-001	  6.97472E-004
  4.09600E-001	  6.58534E-004
  4.60800E-001	  6.42539E-004
  5.12000E-001	  6.30238E-004
  5.63200E-001	  6.20294E-004
  6.14400E-001	  6.12451E-004
  6.65600E-001	  6.06559E-004
  7.16800E-001	  6.02076E-004
  7.68000E-001	  5.98326E-004
  8.19200E-001	  5.84891E-004
  9.21600E-001	  5.81706E-004
  1.02400E+000	  5.79471E-004
  1.12640E+000	  5.74549E-004
  1.22880E+000	  5.74549E-004
  1.33120E+000	  5.74549E-004
  1.43360E+000	  5.74549E-004
  1.53600E+000	  5.74549E-004
  1.63840E+000	  5.44294E-004
  1.84320E+000	  5.44294E-004
  2.04800E+000	  5.44294E-004
  2.25280E+000	  5.44294E-004
  2.45760E+000	  5.44294E-004
  2.66240E+000	  5.44294E-004
  2.86720E+000	  5.44294E-004
  3.07200E+000	  5.44294E-004
  3.27680E+000	  4.91608E-004
  3.68640E+000	  4.91608E-004
  4.09600E+000	  4.91608E-004
  4.50560E+000	  4.91608E-004
  4.91520E+000	  4.91608E-004
  5.32480E+000	  4.91608E-004
  5.73440E+000	  4.91608E-004
  6.14400E+000	  4.91608E-004
  6.55360E+000	  4.17322E-004
  7.37280E+000	  4.17322E-004
  8.19200E+000	  4.17322E-004
  9.01120E+000	  4.17322E-004
  9.83040E+000	  4.17322E-004
  1.06496E+001	  4.17322E-004
  1.14688E+001	  4.17322E-004
  1.22880E+001	  4.17322E-004
  1.31072E+001	  3.33943E-004
  1.47456E+001	  3.33943E-004
  1.63840E+001	  3.33943E-004
  1.80224E+001	  3.33943E-004
  1.96608E+001	  3.33943E-004
  2.12992E+001	  3.33943E-004
  2.29376E+001	  3.33943E-004
  2.45760E+001	  3.33943E-004
  2.62144E+001	  2.50936E-004
  2.94912E+001	  2.50936E-004
  3.27680E+001	  2.50936E-004
  3.60448E+001	  2.50936E-004
  3.93216E+001	  2.50936E-004
  4.25984E+001	  2.50936E-004
  4.58752E+001	  2.50936E-004
  4.91520E+001	  2.50936E-004
  5.24288E+001	  1.82739E-004
  5.89824E+001	  1.82739E-004
  6.55360E+001	  1.82739E-004
  7.20896E+001	  1.82739E-004
  7.86432E+001	  1.82739E-004
  8.51968E+001	  1.82739E-004
  9.17504E+001	  1.82739E-004
  9.83040E+001	  1.82739E-004
  1.04858E+002	  1.31091E-004
  1.17965E+002	  1.31091E-004
  1.31072E+002	  1.31091E-004
  1.44179E+002	  1.31091E-004
  1.57286E+002	  1.31091E-004
  1.70394E+002	  1.31091E-004
  1.83501E+002	  1.31091E-004
  1.96608E+002	  1.31091E-004
  2.09715E+002	  9.33585E-005
  2.35930E+002	  9.33585E-005
  2.62144E+002	  9.33585E-005
  2.88358E+002	  9.33585E-005
  3.14573E+002	  9.33585E-005
  3.40787E+002	  9.33585E-005
  3.67002E+002	  9.33585E-005
  3.93216E+002	  9.33585E-005
  4.19430E+002	  6.62488E-005
  4.71859E+002	  6.62488E-005
  5.24288E+002	  6.62488E-005
  5.76717E+002	  6.62488E-005
  6.29146E+002	  6.62488E-005
  6.81574E+002	  6.62488E-005
  7.34003E+002	  6.62488E-005
  7.86432E+002	  6.62488E-005
  8.38861E+002	  4.69278E-005
  9.43718E+002	  4.69278E-005
  1.04858E+003	  4.69278E-005
  1.15343E+003	  4.69278E-005
  1.25829E+003	  4.69278E-005
  1.36315E+003	  4.69278E-005
  1.46801E+003	  4.69278E-005
  1.57286E+003	  4.69278E-005
  1.67772E+003	  3.32123E-005
  1.88744E+003	  3.32123E-005
  2.09715E+003	  3.32123E-005
  2.30687E+003	  3.32123E-005
  2.51658E+003	  3.32123E-005
  2.72630E+003	  3.32123E-005
  2.93601E+003	  3.32123E-005
  3.14573E+003	  3.32123E-005
  3.35544E+003	  2.34950E-005
  3.77487E+003	  2.34950E-005
  4.19430E+003	  2.34950E-005
  4.61373E+003	  2.34950E-005
  5.03317E+003	  2.34950E-005
  5.45260E+003	  2.34950E-005
  5.87203E+003	  2.34950E-005
  6.29146E+003	  2.34950E-005
  6.71089E+003	  1.66171E-005
  7.54975E+003	  1.66171E-005
  8.38861E+003	  1.66171E-005
  9.22747E+003	  1.66171E-005
  1.00663E+004	  1.66171E-005
  1.09052E+004	  1.66171E-005
  1.17441E+004	  1.66171E-005
