ALV-7004 or ALV-7004/FAST Data
Date :	"3/27/2010"
Time :	"10:38:48 AM"
Samplename : 	"BSA 1 g/l in YCl3 8.3mM"
SampMemo(0) : 	""
SampMemo(1) : 	""
SampMemo(2) : 	""
SampMemo(3) : 	""
SampMemo(4) : 	""
SampMemo(5) : 	""
SampMemo(6) : 	""
SampMemo(7) : 	""
SampMemo(8) : 	""
SampMemo(9) : 	""
Temperature [K] :	     295.65771
Viscosity [cp]  :	       0.94319
Refractive Index:	       1.33200
Wavelength [nm] :	     632.80000
Angle [°]       :	      40.00000
Duration [s]    :	        70
Runs            :	         1
Mode            :	"C-CH0/1+1/0"
MeanCR0 [kHz]   :	      84.00291
MeanCR1 [kHz]   :	     102.77861
MeanCR2 [kHz]   :	       0.00000
MeanCR3 [kHz]   :	       0.00000

"Correlation"
  3.12500E-006	  9.12208E-001	  8.44665E-001	 -3.00000E+000	 -3.00000E+000
  6.25000E-006	  8.67683E-001	  8.54727E-001	 -3.00000E+000	 -3.00000E+000
  9.37500E-006	  9.44167E-001	  8.92228E-001	 -3.00000E+000	 -3.00000E+000
  1.25000E-005	  8.84664E-001	  9.21368E-001	 -3.00000E+000	 -3.00000E+000
  1.56250E-005	  9.23831E-001	  8.52936E-001	 -3.00000E+000	 -3.00000E+000
  1.87500E-005	  9.11212E-001	  9.04879E-001	 -3.00000E+000	 -3.00000E+000
  2.18750E-005	  8.72511E-001	  8.43679E-001	 -3.00000E+000	 -3.00000E+000
  2.50000E-005	  9.82963E-001	  9.75265E-001	 -3.00000E+000	 -3.00000E+000
  2.81250E-005	  9.37992E-001	  9.42591E-001	 -3.00000E+000	 -3.00000E+000
  3.12500E-005	  9.31406E-001	  9.18751E-001	 -3.00000E+000	 -3.00000E+000
  3.43750E-005	  8.92297E-001	  8.71590E-001	 -3.00000E+000	 -3.00000E+000
  3.75000E-005	  8.75747E-001	  8.56790E-001	 -3.00000E+000	 -3.00000E+000
  4.06250E-005	  9.21708E-001	  9.43189E-001	 -3.00000E+000	  1.75808E+000
  4.37500E-005	  9.43802E-001	  9.27131E-001	 -3.00000E+000	  2.23637E+000
  4.68750E-005	  9.80023E-001	  9.10359E-001	 -3.00000E+000	 -7.06373E-001
  5.00000E-005	  9.60386E-001	  9.42530E-001	 -3.00000E+000	  3.24799E+000
  5.62500E-005	  9.28828E-001	  9.10540E-001	 -3.00000E+000	  1.66938E+000
  6.25000E-005	  9.36861E-001	  9.20303E-001	 -3.00000E+000	  1.63651E+000
  6.87500E-005	  9.30942E-001	  9.32557E-001	 -2.90641E+000	  1.82079E+000
  7.50000E-005	  8.78963E-001	  9.00444E-001	  2.66425E+000	  1.22036E+000
  8.12500E-005	  9.77364E-001	  9.35068E-001	  1.31898E+000	  1.31466E+000
  8.75000E-005	  9.11017E-001	  9.23964E-001	  1.39090E+000	  1.25717E+000
  9.37500E-005	  9.27990E-001	  9.25297E-001	  1.23468E+000	  1.26491E+000
  1.00000E-004	  9.46378E-001	  9.60300E-001	  1.09743E+000	  1.14500E+000
  1.12500E-004	  9.38440E-001	  9.34037E-001	  1.10908E+000	  1.12176E+000
  1.25000E-004	  9.60916E-001	  9.81543E-001	  1.07423E+000	  1.13544E+000
  1.37500E-004	  9.64224E-001	  9.64099E-001	  9.68779E-001	  1.08939E+000
  1.50000E-004	  9.27273E-001	  9.12664E-001	  1.00281E+000	  1.07514E+000
  1.62500E-004	  8.99582E-001	  9.00053E-001	  9.21596E-001	  1.06683E+000
  1.75000E-004	  9.29113E-001	  9.12446E-001	  9.26835E-001	  1.04366E+000
  1.87500E-004	  9.25243E-001	  9.16238E-001	  9.41959E-001	  1.00612E+000
  2.00000E-004	  9.18314E-001	  9.18911E-001	  9.58050E-001	  1.03293E+000
  2.25000E-004	  9.19865E-001	  9.27033E-001	  9.35822E-001	  1.03693E+000
  2.50000E-004	  9.22596E-001	  9.23474E-001	  9.18242E-001	  1.00422E+000
  2.75000E-004	  9.20825E-001	  8.95917E-001	  9.46981E-001	  1.02598E+000
  3.00000E-004	  9.31138E-001	  9.41637E-001	  9.02424E-001	  9.81003E-001
  3.25000E-004	  9.29423E-001	  9.33880E-001	  9.29678E-001	  1.00303E+000
  3.50000E-004	  9.24432E-001	  9.23249E-001	  9.25862E-001	  9.77317E-001
  3.75000E-004	  9.06460E-001	  9.09983E-001	  9.27648E-001	  9.78320E-001
  4.00000E-004	  9.25140E-001	  9.32067E-001	  9.30232E-001	  9.81489E-001
  4.50000E-004	  9.31398E-001	  9.25472E-001	  9.19587E-001	  9.92865E-001
  5.00000E-004	  9.26717E-001	  9.25505E-001	  9.22937E-001	  9.67946E-001
  5.50000E-004	  9.32357E-001	  9.43576E-001	  9.17249E-001	  9.71056E-001
  6.00000E-004	  9.20286E-001	  9.25004E-001	  9.36043E-001	  9.61361E-001
  6.50000E-004	  9.11194E-001	  9.12895E-001	  9.24684E-001	  9.53211E-001
  7.00000E-004	  9.18059E-001	  9.13842E-001	  9.07728E-001	  9.53815E-001
  7.50000E-004	  9.32155E-001	  9.19497E-001	  9.25392E-001	  9.60347E-001
  8.00000E-004	  9.27611E-001	  9.20123E-001	  9.43475E-001	  9.63398E-001
  9.00000E-004	  9.28592E-001	  9.31998E-001	  9.31637E-001	  9.63876E-001
  1.00000E-003	  9.28684E-001	  9.31215E-001	  9.31003E-001	  9.60273E-001
  1.10000E-003	  9.23623E-001	  9.12332E-001	  9.20608E-001	  9.64891E-001
  1.20000E-003	  9.19601E-001	  9.30652E-001	  9.12351E-001	  9.53925E-001
  1.30000E-003	  9.14750E-001	  9.10234E-001	  9.06488E-001	  9.42840E-001
  1.40000E-003	  9.18635E-001	  9.16086E-001	  9.17464E-001	  9.49164E-001
  1.50000E-003	  9.18292E-001	  9.05186E-001	  9.10954E-001	  9.53880E-001
  1.60000E-003	  9.20581E-001	  9.19851E-001	  9.17266E-001	  9.48113E-001
  1.80000E-003	  9.11722E-001	  9.14451E-001	  8.99430E-001	  9.44485E-001
  2.00000E-003	  9.14052E-001	  9.20405E-001	  9.07119E-001	  9.41592E-001
  2.20000E-003	  9.10833E-001	  9.09845E-001	  9.06850E-001	  9.34440E-001
  2.40000E-003	  9.17448E-001	  9.23343E-001	  9.06915E-001	  9.37618E-001
  2.60000E-003	  9.08816E-001	  9.05140E-001	  9.11605E-001	  9.35741E-001
  2.80000E-003	  9.04098E-001	  9.04773E-001	  9.19376E-001	  9.32176E-001
  3.00000E-003	  9.15773E-001	  9.17538E-001	  8.95541E-001	  9.36436E-001
  3.20000E-003	  9.07481E-001	  9.09403E-001	  9.10385E-001	  9.32468E-001
  3.60000E-003	  9.00363E-001	  8.99810E-001	  8.99439E-001	  9.21889E-001
  4.00000E-003	  8.93109E-001	  8.89795E-001	  9.06569E-001	  9.19299E-001
  4.40000E-003	  8.88447E-001	  8.84746E-001	  8.99758E-001	  9.14585E-001
  4.80000E-003	  8.88297E-001	  8.88961E-001	  8.83178E-001	  9.10579E-001
  5.20000E-003	  8.83138E-001	  8.84267E-001	  8.91143E-001	  9.03594E-001
  5.60000E-003	  8.85144E-001	  8.86803E-001	  8.87384E-001	  8.93417E-001
  6.00000E-003	  8.79951E-001	  8.79501E-001	  8.77500E-001	  8.94762E-001
  6.40000E-003	  8.72155E-001	  8.76385E-001	  8.81547E-001	  8.89022E-001
  7.20000E-003	  8.65837E-001	  8.63565E-001	  8.76229E-001	  8.82766E-001
  8.00000E-003	  8.61541E-001	  8.62835E-001	  8.67725E-001	  8.77478E-001
  8.80000E-003	  8.54566E-001	  8.55353E-001	  8.64354E-001	  8.70201E-001
  9.60000E-003	  8.49135E-001	  8.49154E-001	  8.55557E-001	  8.67966E-001
  1.04000E-002	  8.38876E-001	  8.40010E-001	  8.51956E-001	  8.54101E-001
  1.12000E-002	  8.32777E-001	  8.30052E-001	  8.46506E-001	  8.49696E-001
  1.20000E-002	  8.26056E-001	  8.23610E-001	  8.39920E-001	  8.50424E-001
  1.28000E-002	  8.17866E-001	  8.16348E-001	  8.31758E-001	  8.39423E-001
  1.44000E-002	  8.07518E-001	  8.05309E-001	  8.17769E-001	  8.24641E-001
  1.60000E-002	  7.93852E-001	  7.92882E-001	  8.10153E-001	  8.11587E-001
  1.76000E-002	  7.83054E-001	  7.81877E-001	  7.97855E-001	  7.97902E-001
  1.92000E-002	  7.68675E-001	  7.70114E-001	  7.81720E-001	  7.85119E-001
  2.08000E-002	  7.56897E-001	  7.60176E-001	  7.68702E-001	  7.72652E-001
  2.24000E-002	  7.43405E-001	  7.45402E-001	  7.61473E-001	  7.61864E-001
  2.40000E-002	  7.35756E-001	  7.34837E-001	  7.45013E-001	  7.50735E-001
  2.56000E-002	  7.22526E-001	  7.21572E-001	  7.32061E-001	  7.37744E-001
  2.88000E-002	  7.00737E-001	  7.00555E-001	  7.11877E-001	  7.15596E-001
  3.20000E-002	  6.80593E-001	  6.80797E-001	  6.88708E-001	  6.96707E-001
  3.52000E-002	  6.59564E-001	  6.60771E-001	  6.71989E-001	  6.72457E-001
  3.84000E-002	  6.39446E-001	  6.36942E-001	  6.49807E-001	  6.55229E-001
  4.16000E-002	  6.19320E-001	  6.21327E-001	  6.29093E-001	  6.32713E-001
  4.48000E-002	  5.99719E-001	  5.99419E-001	  6.10572E-001	  6.12643E-001
  4.80000E-002	  5.82435E-001	  5.81476E-001	  5.93526E-001	  5.96829E-001
  5.12000E-002	  5.65959E-001	  5.65166E-001	  5.74514E-001	  5.78096E-001
  5.76000E-002	  5.31839E-001	  5.32156E-001	  5.40157E-001	  5.43579E-001
  6.40000E-002	  4.99911E-001	  4.99097E-001	  5.08393E-001	  5.11581E-001
  7.04000E-002	  4.70048E-001	  4.70327E-001	  4.77111E-001	  4.81786E-001
  7.68000E-002	  4.42859E-001	  4.43095E-001	  4.50465E-001	  4.52899E-001
  8.32000E-002	  4.16936E-001	  4.15763E-001	  4.25094E-001	  4.24907E-001
  8.96000E-002	  3.92261E-001	  3.91792E-001	  3.99869E-001	  3.99822E-001
  9.60000E-002	  3.69613E-001	  3.69886E-001	  3.76322E-001	  3.76648E-001
  1.02400E-001	  3.48009E-001	  3.47758E-001	  3.54044E-001	  3.55613E-001
  1.15200E-001	  3.08087E-001	  3.08453E-001	  3.13602E-001	  3.14496E-001
  1.28000E-001	  2.73305E-001	  2.72540E-001	  2.77738E-001	  2.79174E-001
  1.40800E-001	  2.41064E-001	  2.41228E-001	  2.45029E-001	  2.46926E-001
  1.53600E-001	  2.14993E-001	  2.14520E-001	  2.15838E-001	  2.20165E-001
  1.66400E-001	  1.89892E-001	  1.89475E-001	  1.91769E-001	  1.94521E-001
  1.79200E-001	  1.68684E-001	  1.68578E-001	  1.70619E-001	  1.73882E-001
  1.92000E-001	  1.50019E-001	  1.50333E-001	  1.52169E-001	  1.53906E-001
  2.04800E-001	  1.33500E-001	  1.33565E-001	  1.36013E-001	  1.36497E-001
  2.30400E-001	  1.05405E-001	  1.05836E-001	  1.07439E-001	  1.07408E-001
  2.56000E-001	  8.39180E-002	  8.34226E-002	  8.40231E-002	  8.46653E-002
  2.81600E-001	  6.56579E-002	  6.49606E-002	  6.80655E-002	  6.65984E-002
  3.07200E-001	  5.15381E-002	  5.13062E-002	  5.35180E-002	  5.23076E-002
  3.32800E-001	  4.01873E-002	  3.90991E-002	  4.18621E-002	  4.06304E-002
  3.58400E-001	  3.17263E-002	  3.17333E-002	  3.26366E-002	  3.19556E-002
  3.84000E-001	  2.61178E-002	  2.59213E-002	  2.68804E-002	  2.51759E-002
  4.09600E-001	  2.11780E-002	  2.12414E-002	  2.13289E-002	  2.16464E-002
  4.60800E-001	  1.29910E-002	  1.32806E-002	  1.27020E-002	  1.38809E-002
  5.12000E-001	  8.07610E-003	  8.18889E-003	  7.47217E-003	  8.64827E-003
  5.63200E-001	  4.99575E-003	  4.29190E-003	  4.35364E-003	  5.14837E-003
  6.14400E-001	  3.04852E-003	  3.40549E-003	  2.47070E-003	  3.68378E-003
  6.65600E-001	  2.02337E-003	  2.78570E-003	  2.27623E-003	  2.44154E-003
  7.16800E-001	  1.47016E-003	  1.97203E-003	  2.41873E-003	  1.31321E-003
  7.68000E-001	  1.29170E-003	  1.84001E-003	  2.08349E-003	  1.51018E-003
  8.19200E-001	  4.11925E-004	  7.00215E-004	  9.95138E-004	  1.24943E-003
  9.21600E-001	  6.78265E-004	  1.28943E-003	  3.29615E-004	  4.19208E-004
  1.02400E+000	  7.62469E-004	  1.02742E-003	  1.02242E-003	  8.41572E-004
  1.12640E+000	  1.27688E-003	  1.64324E-003	  6.32431E-004	  1.51905E-003
  1.22880E+000	  7.28022E-004	  1.07390E-003	  4.65373E-004	  1.23914E-003
  1.33120E+000	  1.27316E-003	  1.78444E-003	  6.66199E-004	  1.81100E-003
  1.43360E+000	  2.83429E-004	  8.00243E-004	  6.23402E-005	  4.69878E-004
  1.53600E+000	  3.19950E-004	  7.62420E-004	  2.05956E-004	  3.63698E-004
  1.63840E+000	  4.72140E-004	  9.53004E-004	  5.95015E-004	  1.39456E-004
  1.84320E+000	 -5.13754E-004	 -1.04765E-003	 -1.07950E-004	 -1.09108E-003
  2.04800E+000	  4.47314E-004	  2.33904E-004	  6.66081E-005	  3.00453E-004
  2.25280E+000	 -9.83222E-005	 -7.28081E-004	 -4.27990E-004	 -5.40280E-004
  2.45760E+000	 -1.11680E-004	 -5.81328E-005	 -8.62164E-005	  1.53541E-004
  2.66240E+000	 -2.21108E-004	  8.49996E-005	 -5.62799E-004	 -7.32323E-004
  2.86720E+000	  6.06018E-004	  3.99536E-004	  7.48851E-004	  8.35962E-004
  3.07200E+000	  8.84232E-004	  1.25160E-003	  3.89009E-004	  1.57566E-003
  3.27680E+000	  6.29843E-004	  1.27680E-003	  1.34651E-004	  1.04183E-003
  3.68640E+000	  1.21145E-004	  3.23368E-004	  4.78275E-004	 -3.02700E-006
  4.09600E+000	 -1.03687E-004	  3.56530E-004	 -2.95945E-004	  1.13391E-004
  4.50560E+000	 -1.26084E-004	 -3.63615E-004	  3.55268E-004	 -2.79378E-004
  4.91520E+000	 -1.13219E-003	 -1.19912E-003	 -1.58433E-003	 -9.78244E-004
  5.32480E+000	 -5.50935E-004	 -7.42450E-004	 -5.11200E-004	 -1.03133E-003
  5.73440E+000	 -7.32903E-005	 -6.63739E-004	 -3.20740E-004	 -1.07741E-004
  6.14400E+000	  5.82969E-005	 -1.30486E-004	  6.18252E-004	  1.85853E-004
  6.55360E+000	 -3.73803E-004	 -4.23828E-004	 -2.22641E-004	 -3.19780E-004
  7.37280E+000	  2.04812E-004	  2.36854E-004	  2.61147E-004	 -5.67817E-005
  8.19200E+000	 -1.72457E-004	 -1.90814E-004	 -3.07739E-004	 -1.12586E-004
  9.01120E+000	 -2.10240E-004	 -4.10912E-004	 -1.98278E-004	 -2.79723E-004
  9.83040E+000	 -6.84030E-004	 -7.19824E-004	 -7.26922E-004	 -7.21930E-004
  1.06496E+001	  1.99912E-004	  7.00972E-004	 -1.18780E-006	  2.97447E-004
  1.14688E+001	 -5.71909E-004	 -4.06600E-004	 -4.85846E-004	 -6.24467E-004
  1.22880E+001	  3.29702E-004	  3.45329E-004	  2.62152E-004	  4.44169E-004
  1.31072E+001	 -4.32605E-004	 -4.05711E-004	 -4.25780E-004	 -3.44493E-004
  1.47456E+001	  2.85810E-004	  3.52117E-004	  3.18741E-004	  2.84575E-004
  1.63840E+001	 -5.39611E-004	 -3.39997E-004	 -9.43879E-004	 -2.43082E-004
  1.80224E+001	  1.30355E-004	  2.45595E-004	  6.12041E-005	  2.97757E-004
  1.96608E+001	  6.35931E-004	  7.70518E-004	  6.28076E-004	  5.86705E-004
  2.12992E+001	  7.14142E-005	 -5.66559E-005	  2.17883E-006	 -5.65463E-005
  2.29376E+001	 -3.99961E-004	 -5.02190E-004	 -2.99804E-004	 -3.71120E-004
  2.45760E+001	 -1.86498E-004	 -1.47246E-004	 -3.87365E-004	 -1.56612E-005
  2.62144E+001	  1.34635E-004	  1.45516E-004	  8.55826E-006	  7.14995E-005
  2.94912E+001	  3.18061E-004	  4.33611E-004	  4.01725E-004	  1.84854E-004
  3.27680E+001	 -1.86851E-004	 -9.48299E-005	 -3.94237E-004	 -1.58006E-004
  3.60448E+001	  2.83700E-005	  7.15756E-006	 -2.58068E-004	  2.17259E-004
  3.93216E+001	  1.69850E-004	  7.85587E-005	  1.42398E-004	  2.66488E-004
  4.25984E+001	 -2.59208E-004	 -2.71707E-004	 -3.68707E-004	 -1.93734E-004
  4.58752E+001	 -3.28661E-004	 -2.05916E-004	 -3.89599E-004	 -2.95725E-004
  4.91520E+001	 -2.44158E-005	  1.00868E-004	 -9.33575E-006	 -8.40513E-005
  5.24288E+001	  1.72934E-004	  1.99132E-004	  1.93380E-004	  1.26903E-004
  5.89824E+001	 -9.89961E-005	 -4.65760E-005	 -1.46175E-004	 -1.39731E-004
  6.55360E+001	  7.64663E-005	  1.72504E-004	  9.89443E-005	  4.55961E-006
  7.20896E+001	  2.45673E-004	  2.59853E-004	  3.19247E-004	  1.56084E-004
  7.86432E+001	  1.17308E-004	  1.75939E-004	  1.14171E-004	  1.66830E-004
  8.51968E+001	 -1.12310E-004	 -2.52810E-005	 -2.32489E-004	  3.33546E-005
  9.17504E+001	  2.99516E-005	  1.28427E-004	  1.09316E-004	 -1.03590E-005
  9.83040E+001	 -8.09896E-005	 -1.09553E-004	 -1.94810E-004	 -4.26114E-005
  1.04858E+002	 -2.43769E-004	 -2.69767E-004	 -2.37196E-004	 -2.51841E-004
  1.17965E+002	  1.97081E-005	  5.60160E-005	 -3.11903E-005	  2.56625E-006
  1.31072E+002	 -4.53138E-005	 -6.66202E-005	  1.28832E-006	 -1.53863E-004
  1.44179E+002	  1.19894E-004	  1.15413E-004	 -1.14325E-005	  1.75386E-004
  1.57286E+002	  4.43254E-005	  9.73558E-005	  1.47738E-006	  7.59857E-005
  1.70394E+002	  1.57828E-004	  9.82624E-005	  1.79681E-004	  1.21648E-004
  1.83501E+002	  5.67164E-005	  9.05297E-005	  4.15377E-005	  1.02483E-004
  1.96608E+002	 -9.67826E-005	 -9.19566E-005	 -2.70067E-004	  9.14640E-005
  2.09715E+002	  8.25503E-007	  2.30297E-005	  4.60312E-006	  1.69269E-005
  2.35930E+002	 -7.06347E-005	 -4.38028E-005	 -8.12155E-005	 -5.55561E-005
  2.62144E+002	 -9.66549E-005	 -3.66120E-005	 -1.05411E-004	 -9.92097E-005
  2.88358E+002	  1.12361E-006	  8.40540E-007	  8.79895E-006	  1.04454E-005
  3.14573E+002	  1.19696E-004	  1.30147E-004	  1.27713E-004	  8.23520E-005
  3.40787E+002	 -3.38050E-005	 -1.17170E-004	 -1.28921E-004	  5.01078E-005
  3.67002E+002	  7.15862E-005	 -3.15947E-005	  2.87324E-005	  1.18486E-004
  3.93216E+002	  1.54603E-005	 -2.54393E-005	  7.91623E-005	 -5.48348E-005
  4.19430E+002	 -7.74116E-005	 -1.39638E-004	 -2.28584E-005	 -1.18405E-004
  4.71859E+002	 -6.04213E-005	 -4.13711E-005	 -2.88003E-005	 -9.15348E-005
  5.24288E+002	 -9.88421E-006	  7.59536E-006	 -7.97583E-006	 -9.08585E-007
  5.76717E+002	 -2.30464E-005	 -1.30837E-005	 -1.66255E-005	 -1.63274E-005
  6.29146E+002	 -9.73087E-005	 -7.27480E-005	 -4.75812E-005	 -1.03949E-004
  6.81574E+002	 -4.85000E-005	 -5.87017E-005	 -6.03810E-005	 -5.30453E-005
  7.34003E+002	  9.13722E-006	  1.21428E-005	 -1.05751E-005	  2.89379E-006
  7.86432E+002	  5.32263E-005	  5.82306E-005	  8.13016E-005	  1.02112E-005
  8.38861E+002	 -3.91137E-005	 -2.71094E-005	 -5.50568E-005	 -7.86452E-006
  9.43718E+002	  1.78028E-005	  6.16696E-006	  3.61968E-005	 -7.35525E-006
  1.04858E+003	  7.93069E-005	  6.87030E-005	  6.96796E-005	  8.20412E-005
  1.15343E+003	  9.73971E-008	 -1.05195E-005	 -2.33946E-006	  6.42683E-006
  1.25829E+003	 -7.16285E-005	 -4.32373E-005	 -7.59054E-005	 -6.30538E-005
  1.36315E+003	  2.53238E-005	  2.06368E-005	  1.08438E-005	  2.89239E-005
  1.46801E+003	 -4.86887E-005	 -6.01113E-005	 -5.80440E-005	 -4.82613E-005
  1.57286E+003	 -8.84488E-006	 -2.15261E-006	  2.30775E-005	 -3.20070E-005
  1.67772E+003	  2.23391E-005	  1.14296E-005	  3.58643E-005	  2.70951E-005
  1.88744E+003	 -9.60912E-005	 -1.07203E-004	 -9.50138E-005	 -9.75455E-005
  2.09715E+003	  3.18543E-005	  6.01813E-005	  4.38959E-005	  1.21088E-005
  2.30687E+003	 -3.55756E-005	 -5.10892E-005	 -4.82170E-005	 -3.64332E-005
  2.51658E+003	 -3.09311E-005	 -3.71364E-005	 -4.23024E-005	 -2.34827E-005
  2.72630E+003	  3.74616E-005	  4.21841E-005	  2.97665E-005	  4.74167E-005
  2.93601E+003	  1.66426E-005	  9.07721E-006	  8.98772E-006	  3.07164E-005
  3.14573E+003	  4.05068E-006	  1.29612E-005	  1.07946E-005	 -1.08726E-005
  3.35544E+003	 -5.35590E-006	 -1.01037E-005	 -7.53255E-006	 -7.97557E-006
  3.77487E+003	  5.08626E-006	 -1.40723E-006	  1.18006E-005	 -1.02479E-005
  4.19430E+003	  5.25462E-005	  4.58853E-005	  5.21684E-005	  5.64844E-005
  4.61373E+003	 -3.34436E-005	 -1.90950E-005	 -4.05430E-005	 -3.74435E-005
  5.03317E+003	 -1.01613E-005	 -6.92803E-006	 -3.11780E-005	 -1.92191E-006
  5.45260E+003	 -2.66954E-005	 -3.97571E-005	 -3.18535E-005	 -2.03041E-005
  5.87203E+003	 -2.23798E-005	 -2.50538E-005	 -3.71204E-005	 -1.87471E-005
  6.29146E+003	 -8.21047E-006	  1.83607E-006	 -1.04044E-005	 -1.74867E-006
  6.71089E+003	  4.61387E-006	  4.72021E-006	 -5.60474E-006	  1.32437E-005
  7.54975E+003	  2.09383E-005	  1.70116E-005	  2.91697E-005	  1.36187E-005
  8.38861E+003	  2.96945E-005	  3.07039E-005	  3.25569E-005	  2.24485E-005
  9.22747E+003	  9.09037E-006	  1.16593E-005	  2.76790E-006	  1.21865E-005
  1.00663E+004	 -2.39283E-005	 -3.52535E-005	 -1.63835E-005	 -2.37142E-005
  1.09052E+004	 -1.70216E-005	 -1.87816E-005	 -3.17224E-006	 -2.43667E-005
  1.17441E+004	  5.05459E-006	  7.30441E-006	  1.20392E-005	 -4.69175E-006

"Count Rate"
       0.27344	      84.04800	     102.88092	      84.04800	     102.88092
       0.54688	      82.85974	     100.92487	      82.85974	     100.92487
       0.82031	      83.02427	     101.23564	      83.02427	     101.23564
       1.09375	      81.46308	      98.85913	      81.46308	      98.85913
       1.36719	      83.03889	     101.12962	      83.03889	     101.12962
       1.64063	      86.65850	     105.31227	      86.65850	     105.31227
       1.91406	      82.25282	     100.99433	      82.25282	     100.99433
       2.18750	      81.49233	      99.91211	      81.49233	      99.91211
       2.46094	      83.63850	     103.07469	      83.63850	     103.07469
       2.73438	      83.20708	     101.74385	      83.20708	     101.74385
       3.00781	      83.14492	     103.36353	      83.14492	     103.36353
       3.28125	      83.11567	     101.64148	      83.11567	     101.64148
       3.55469	      86.21976	     105.87897	      86.21976	     105.87897
       3.82813	      82.04076	     101.07843	      82.04076	     101.07843
       4.10156	      84.50867	     104.56641	      84.50867	     104.56641
       4.37500	      85.10828	     104.43479	      85.10828	     104.43479
       4.64844	      85.08635	     106.45665	      85.08635	     106.45665
       4.92188	      85.42637	     104.60663	      85.42637	     104.60663
       5.19531	      83.69701	     102.40196	      83.69701	     102.40196
       5.46875	      84.83407	     102.51164	      84.83407	     102.51164
       5.74219	      84.62567	     102.31787	      84.62567	     102.31787
       6.01563	      83.09739	     102.23378	      83.09739	     102.23378
       6.28906	      83.83228	     102.71274	      83.83228	     102.71274
       6.56250	      82.57090	     101.92300	      82.57090	     101.92300
       6.83594	      83.77378	     101.62685	      83.77378	     101.62685
       7.10938	      82.63671	     100.30698	      82.63671	     100.30698
       7.38281	      83.83959	     102.47143	      83.83959	     102.47143
       7.65625	      84.89988	     101.56470	      84.89988	     101.56470
       7.92969	      86.69872	     106.31772	      86.69872	     106.31772
       8.20313	      83.20708	     100.92121	      83.20708	     100.92121
       8.47656	      82.72081	     100.97971	      82.72081	     100.97971
       8.75000	      86.13201	     102.52627	      86.13201	     102.52627
       9.02344	      83.98219	     104.21176	      83.98219	     104.21176
       9.29688	      85.87242	     103.61581	      85.87242	     103.61581
       9.57031	      84.32587	     103.19169	      84.32587	     103.19169
       9.84375	      83.68238	     101.65611	      83.68238	     101.65611
      10.11719	      83.06815	     102.31787	      83.06815	     102.31787
      10.39063	      83.71894	     103.61215	      83.71894	     103.61215
      10.66406	      85.25819	     104.82966	      85.25819	     104.82966
      10.93750	      83.15224	     101.91934	      83.15224	     101.91934
      11.21094	      85.48487	     103.72184	      85.48487	     103.72184
      11.48438	      83.45204	     103.29772	      83.45204	     103.29772
      11.75781	      85.02785	     102.49702	      85.02785	     102.49702
      12.03125	      86.38063	     105.45486	      86.38063	     105.45486
      12.30469	      81.77020	      98.03284	      81.77020	      98.03284
      12.57813	      86.16492	     104.80041	      86.16492	     104.80041
      12.85156	      83.63850	     102.66521	      83.63850	     102.66521
      13.12500	      86.80840	     104.78213	      86.80840	     104.78213
      13.39844	      84.62202	     102.69080	      84.62202	     102.69080
      13.67188	      84.45017	     103.68162	      84.45017	     103.68162
      13.94531	      84.11381	     103.45860	      84.11381	     103.45860
      14.21875	      85.35690	     103.31600	      85.35690	     103.31600
      14.49219	      83.79938	     103.51344	      83.79938	     103.51344
      14.76563	      81.36803	     100.21923	      81.36803	     100.21923
      15.03906	      84.74632	     101.45501	      84.74632	     101.45501
      15.31250	      83.35332	     101.88644	      83.35332	     101.88644
      15.58594	      83.53248	     104.14960	      83.53248	     104.14960
      15.85938	      84.97666	     103.01620	      84.97666	     103.01620
      16.13281	      82.35519	     101.50986	      82.35519	     101.50986
      16.40625	      84.72073	     104.57007	      84.72073	     104.57007
      16.67969	      84.20887	     104.88450	      84.20887	     104.88450
      16.95313	      83.71162	     102.38734	      83.71162	     102.38734
      17.22656	      84.49405	     103.78765	      84.49405	     103.78765
      17.50000	      84.91451	     103.19535	      84.91451	     103.19535
      17.77344	      82.47950	     101.71095	      82.47950	     101.71095
      18.04688	      83.29482	     100.55925	      83.29482	     100.55925
      18.32031	      81.60933	     101.36361	      81.60933	     101.36361
      18.59375	      83.91637	     102.56283	      83.91637	     102.56283
      18.86719	      83.79206	     102.55186	      83.79206	     102.55186
      19.14063	      83.23633	     102.55186	      83.23633	     102.55186
      19.41406	      85.41174	     101.72192	      85.41174	     101.72192
      19.68750	      83.91637	     102.11312	      83.91637	     102.11312
      19.96094	      85.41174	     104.84794	      85.41174	     104.84794
      20.23438	      85.28012	     104.34704	      85.28012	     104.34704
      20.50781	      86.04427	     105.29034	      86.04427	     105.29034
      20.78125	      85.18872	     103.05641	      85.18872	     103.05641
      21.05469	      85.56531	     102.39465	      85.56531	     102.39465
      21.32813	      85.48487	     104.73825	      85.48487	     104.73825
      21.60156	      83.24364	     100.78593	      83.24364	     100.78593
      21.87500	      82.38444	     101.03821	      82.38444	     101.03821
      22.14844	      85.96017	     103.24288	      85.96017	     103.24288
      22.42188	      82.38444	     100.92121	      82.38444	     100.92121
      22.69531	      84.54158	     103.75840	      84.54158	     103.75840
      22.96875	      83.78110	     102.13140	      83.78110	     102.13140
      23.24219	      85.51412	     106.16050	      85.51412	     106.16050
      23.51563	      83.81034	     103.18073	      83.81034	     103.18073
      23.78906	      82.87437	     101.00165	      82.87437	     101.00165
      24.06250	      84.70976	     102.83339	      84.70976	     102.83339
      24.33594	      83.03889	     100.82249	      83.03889	     100.82249
      24.60938	      84.18327	     101.60126	      84.18327	     101.60126
      24.88281	      86.77184	     105.78026	      86.77184	     105.78026
      25.15625	      82.48315	     102.36174	      82.48315	     102.36174
      25.42969	      85.39346	     103.95218	      85.39346	     103.95218
      25.70313	      83.75916	     102.66154	      83.75916	     102.66154
      25.97656	      81.81408	     101.97054	      81.81408	     101.97054
      26.25000	      84.02972	     101.79504	      84.02972	     101.79504
      26.52344	      81.60933	     100.40935	      81.60933	     100.40935
      26.79688	      84.91817	     103.67796	      84.91817	     103.67796
      27.07031	      85.08635	     104.70169	      85.08635	     104.70169
      27.34375	      83.29117	     103.24654	      83.29117	     103.24654
      27.61719	      84.48673	     103.89368	      84.48673	     103.89368
      27.89063	      84.27102	     103.84980	      84.27102	     103.84980
      28.16406	      83.88347	     102.85167	      83.88347	     102.85167
      28.43750	      83.85422	     103.10029	      83.85422	     103.10029
      28.71094	      85.24722	     102.91016	      85.24722	     102.91016
      28.98438	      83.09008	     103.43665	      83.09008	     103.43665
      29.25781	      83.93831	     102.06925	      83.93831	     102.06925
      29.53125	      82.62209	     101.61223	      82.62209	     101.61223
      29.80469	      83.26192	     101.80601	      83.26192	     101.80601
      30.07813	      84.66589	     105.07096	      84.66589	     105.07096
      30.35156	      83.97853	     101.59760	      83.97853	     101.59760
      30.62500	      84.17596	     102.84070	      84.17596	     102.84070
      30.89844	      87.53598	     105.81682	      87.53598	     105.81682
      31.17188	      83.41548	     101.16983	      83.41548	     101.16983
      31.44531	      83.62022	     101.76579	      83.62022	     101.76579
      31.71875	      84.50136	     104.31413	      84.50136	     104.31413
      31.99219	      85.78468	     103.93389	      85.78468	     103.93389
      32.26563	      84.14671	     102.45680	      84.14671	     102.45680
      32.53906	      82.80490	     102.02903	      82.80490	     102.02903
      32.81250	      83.99681	     101.89010	      83.99681	     101.89010
      33.08594	      83.46667	     103.33063	      83.46667	     103.33063
      33.35938	      84.95473	     104.44210	      84.95473	     104.44210
      33.63281	      86.59634	     107.04530	      86.59634	     107.04530
      33.90625	      83.42279	     101.52814	      83.42279	     101.52814
      34.17969	      84.94010	     104.52254	      84.94010	     104.52254
      34.45313	      85.14484	     104.57372	      85.14484	     104.57372
      34.72656	      84.06628	     102.48240	      84.06628	     102.48240
      35.00000	      84.58179	     102.38368	      84.58179	     102.38368
      35.27344	      80.87444	      97.65991	      80.87444	      97.65991
      35.54688	      84.59277	     102.39099	      84.59277	     102.39099
      35.82031	      83.68604	     101.48792	      83.68604	     101.48792
      36.09375	      82.06635	     101.61588	      82.06635	     101.61588
      36.36719	      81.82870	     101.09671	      81.82870	     101.09671
      36.64063	      84.60007	     103.37084	      84.60007	     103.37084
      36.91406	      83.29848	     103.20998	      83.29848	     103.20998
      37.18750	      84.28199	     102.65424	      84.28199	     102.65424
      37.46094	      85.01688	     105.12581	      85.01688	     105.12581
      37.73438	      85.64208	     105.18796	      85.64208	     105.18796
      38.00781	      84.34049	     102.89920	      84.34049	     102.89920
      38.28125	      83.34235	     102.36174	      83.34235	     102.36174
      38.55469	      83.27289	     102.38734	      83.27289	     102.38734
      38.82813	      82.65500	     100.80787	      82.65500	     100.80787
      39.10156	      82.76468	     101.96322	      82.76468	     101.96322
      39.37500	      85.44099	     104.46770	      85.44099	     104.46770
      39.64844	      84.75364	     103.52074	      84.75364	     103.52074
      39.92188	      82.66962	     103.01620	      82.66962	     103.01620
      40.19531	      85.33131	     103.71087	      85.33131	     103.71087
      40.46875	      82.00785	     100.69087	      82.00785	     100.69087
      40.74219	      82.97674	     101.59760	      82.97674	     101.59760
      41.01563	      83.82863	     102.64326	      83.82863	     102.64326
      41.28906	      86.67313	     104.21542	      86.67313	     104.21542
      41.56250	      83.19611	     100.36547	      83.19611	     100.36547
      41.83594	      84.77923	     103.93755	      84.77923	     103.93755
      42.10938	      84.70611	     103.85712	      84.70611	     103.85712
      42.38281	      84.30392	     102.02172	      84.30392	     102.02172
      42.65625	      84.65126	     103.50978	      84.65126	     103.50978
      42.92969	      83.98584	     102.78586	      83.98584	     102.78586
      43.20313	      83.07911	     101.51351	      83.07911	     101.51351
      43.47656	      85.36422	     104.51523	      85.36422	     104.51523
      43.75000	      85.51778	     105.10021	      85.51778	     105.10021
      44.02344	      83.33504	     102.48971	      83.33504	     102.48971
      44.29688	      82.14679	     100.67259	      82.14679	     100.67259
      44.57031	      85.45197	     105.42561	      85.45197	     105.42561
      44.84375	      81.63127	      99.57208	      81.63127	      99.57208
      45.11719	      83.67141	     100.37644	      83.67141	     100.37644
      45.39063	      84.64030	     103.46956	      84.64030	     103.46956
      45.66406	      84.57814	     102.84070	      84.57814	     102.84070
      45.93750	      83.70797	     102.60305	      83.70797	     102.60305
      46.21094	      83.20708	     101.89375	      83.20708	     101.89375
      46.48438	      83.68238	     102.92113	      83.68238	     102.92113
      46.75781	      82.10657	     100.19363	      82.10657	     100.19363
      47.03125	      83.68969	     103.74012	      83.68969	     103.74012
      47.30469	      83.01695	     101.14058	      83.01695	     101.14058
      47.57813	      84.36974	     102.70542	      84.36974	     102.70542
      47.85156	      82.73909	     101.85719	      82.73909	     101.85719
      48.12500	      82.40272	      99.94501	      82.40272	      99.94501
      48.39844	      81.75923	     100.83712	      81.75923	     100.83712
      48.67188	      86.82668	     107.28294	      86.82668	     107.28294
      48.94531	      83.80669	     103.30503	      83.80669	     103.30503
      49.21875	      82.02248	      99.85361	      82.02248	      99.85361
      49.49219	      83.75185	     101.16983	      83.75185	     101.16983
      49.76563	      85.39346	     103.25385	      85.39346	     103.25385
      50.03906	      82.92190	     102.14603	      82.92190	     102.14603
      50.31250	      83.66044	     101.47329	      83.66044	     101.47329
      50.58594	      85.35690	     104.20445	      85.35690	     104.20445
      50.85938	      84.94741	     104.63588	      84.94741	     104.63588
      51.13281	      86.36966	     103.04545	      86.36966	     103.04545
      51.40625	      83.66044	     101.58663	      83.66044	     101.58663
      51.67969	      81.79945	      98.43136	      81.79945	      98.43136
      51.95313	      84.32587	     104.00336	      84.32587	     104.00336
      52.22656	      85.71886	     104.50060	      85.71886	     104.50060
      52.50000	      84.01509	     103.23191	      84.01509	     103.23191
      52.77344	      85.00226	     103.11857	      85.00226	     103.11857
      53.04688	      83.40086	     102.81876	      83.40086	     102.81876
      53.32031	      84.20521	     103.72184	      84.20521	     103.72184
      53.59375	      81.98957	     100.45322	      81.98957	     100.45322
      53.86719	      83.78110	     102.49702	      83.78110	     102.49702
      54.14063	      84.12843	     103.19169	      84.12843	     103.19169
      54.41406	      86.02964	     105.27205	      86.02964	     105.27205
      54.68750	      84.34415	     102.26669	      84.34415	     102.26669
      54.96094	      82.49047	     102.59573	      82.49047	     102.59573
      55.23438	      82.88533	     101.99247	      82.88533	     101.99247
      55.50781	      83.49226	     100.83347	      83.49226	     100.83347
      55.78125	      85.03882	     103.66334	      85.03882	     103.66334
      56.05469	      82.54166	     101.81697	      82.54166	     101.81697
      56.32813	      85.26916	     103.98142	      85.26916	     103.98142
      56.60156	      83.49226	     103.85346	      83.49226	     103.85346
      56.87500	      83.10105	     103.25750	      83.10105	     103.25750
      57.14844	      83.53248	     103.52441	      83.53248	     103.52441
      57.42188	      83.09739	     102.22281	      83.09739	     102.22281
      57.69531	      83.45570	     101.89010	      83.45570	     101.89010
      57.96875	      84.51233	     102.77489	      84.51233	     102.77489
      58.24219	      84.13940	     103.91196	      84.13940	     103.91196
      58.51563	      83.11201	     102.14968	      83.11201	     102.14968
      58.78906	      84.72073	     103.26847	      84.72073	     103.26847
      59.06250	      82.83781	     102.02172	      82.83781	     102.02172
      59.33594	      83.40451	     104.18617	      83.40451	     104.18617
      59.60938	      86.31847	     105.65961	      86.31847	     105.65961
      59.88281	      85.66036	     104.82234	      85.66036	     104.82234
      60.15625	      84.86332	     103.86808	      84.86332	     103.86808
      60.42969	      83.74819	     102.43487	      83.74819	     102.43487
      60.70313	      84.09187	     102.72370	      84.09187	     102.72370
      60.97656	      84.67320	     102.73467	      84.67320	     102.73467
      61.25000	      85.71521	     104.07283	      85.71521	     104.07283
      61.52344	      83.95293	     102.12409	      83.95293	     102.12409
      61.79688	      81.64589	      99.97792	      81.64589	      99.97792
      62.07031	      83.32042	     101.40382	      83.32042	     101.40382
      62.34375	      83.31310	     102.96136	      83.31310	     102.96136
      62.61719	      83.52151	     100.39107	      83.52151	     100.39107
      62.89063	      83.70066	     102.77854	      83.70066	     102.77854
      63.16406	      84.84869	     102.48971	      84.84869	     102.48971
      63.43750	      84.10284	     103.10029	      84.10284	     103.10029
      63.71094	      83.67141	     101.87182	      83.67141	     101.87182
      63.98438	      84.75729	     105.20258	      84.75729	     105.20258
      64.25781	      84.78288	     104.59200	      84.78288	     104.59200
      64.53125	      81.30222	     101.11864	      81.30222	     101.11864
      64.80469	      82.98039	     102.12044	      82.98039	     102.12044
      65.07813	      84.34780	     102.98329	      84.34780	     102.98329
      65.35156	      83.37891	     100.81884	      83.37891	     100.81884
      65.62500	      81.84698	      99.50627	      81.84698	      99.50627
      65.89844	      84.05531	     103.66699	      84.05531	     103.66699
      66.17188	      81.97129	     100.60313	      81.97129	     100.60313
      66.44531	      85.26184	     103.74377	      85.26184	     103.74377
      66.71875	      84.10649	     102.58842	      84.10649	     102.58842
      66.99219	      85.71886	     104.68707	      85.71886	     104.68707
      67.26563	      83.25826	     101.95225	      83.25826	     101.95225
      67.53906	      81.89452	     101.63051	      81.89452	     101.63051
      67.81250	      81.91280	     101.00165	      81.91280	     101.00165
      68.08594	      84.17230	     103.12954	      84.17230	     103.12954
      68.35938	      85.09731	     106.00694	      85.09731	     106.00694
      68.63281	      82.02613	     101.22833	      82.02613	     101.22833
      68.90625	      82.95114	     101.10402	      82.95114	     101.10402
      69.17969	      82.33691	     101.13327	      82.33691	     101.13327
      69.45313	      85.26916	     105.48045	      85.26916	     105.48045

Monitor Diode	1632206.63
"StandardDeviation"
  3.12500E-006	  2.92258E-002
  6.25000E-006	  2.92258E-002
  9.37500E-006	  2.92257E-002
  1.25000E-005	  2.92254E-002
  1.56250E-005	  2.92258E-002
  1.87500E-005	  2.92256E-002
  2.18750E-005	  2.92257E-002
  2.50000E-005	  2.92258E-002
  2.81250E-005	  2.92257E-002
  3.12500E-005	  2.92257E-002
  3.43750E-005	  2.91787E-002
  3.75000E-005	  2.87295E-002
  4.06250E-005	  2.92257E-002
  4.37500E-005	  2.90130E-002
  4.68750E-005	  2.91659E-002
  5.00000E-005	  2.06741E-002
  5.62500E-005	  2.06504E-002
  6.25000E-005	  2.06350E-002
  6.87500E-005	  2.06529E-002
  7.50000E-005	  2.02914E-002
  8.12500E-005	  2.05798E-002
  8.75000E-005	  2.04612E-002
  9.37500E-005	  2.05917E-002
  1.00000E-004	  1.46302E-002
  1.12500E-004	  1.43925E-002
  1.25000E-004	  1.45696E-002
  1.37500E-004	  1.45751E-002
  1.50000E-004	  1.45197E-002
  1.62500E-004	  1.44151E-002
  1.75000E-004	  1.45124E-002
  1.87500E-004	  1.45424E-002
  2.00000E-004	  1.02481E-002
  2.25000E-004	  1.02723E-002
  2.50000E-004	  1.02149E-002
  2.75000E-004	  1.02272E-002
  3.00000E-004	  1.02838E-002
  3.25000E-004	  1.02383E-002
  3.50000E-004	  1.02589E-002
  3.75000E-004	  1.02172E-002
  4.00000E-004	  7.26636E-003
  4.50000E-004	  7.28697E-003
  5.00000E-004	  7.27105E-003
  5.50000E-004	  7.28554E-003
  6.00000E-004	  7.26561E-003
  6.50000E-004	  7.24667E-003
  7.00000E-004	  7.24826E-003
  7.50000E-004	  7.27518E-003
  8.00000E-004	  5.16585E-003
  9.00000E-004	  5.17535E-003
  1.00000E-003	  5.17199E-003
  1.10000E-003	  5.16782E-003
  1.20000E-003	  5.17558E-003
  1.30000E-003	  5.16637E-003
  1.40000E-003	  5.16613E-003
  1.50000E-003	  5.17276E-003
  1.60000E-003	  3.70052E-003
  1.80000E-003	  3.69725E-003
  2.00000E-003	  3.69462E-003
  2.20000E-003	  3.68759E-003
  2.40000E-003	  3.69090E-003
  2.60000E-003	  3.69407E-003
  2.80000E-003	  3.69010E-003
  3.00000E-003	  3.69827E-003
  3.20000E-003	  2.67647E-003
  3.60000E-003	  2.67007E-003
  4.00000E-003	  2.66922E-003
  4.40000E-003	  2.66482E-003
  4.80000E-003	  2.66614E-003
  5.20000E-003	  2.66231E-003
  5.60000E-003	  2.66612E-003
  6.00000E-003	  2.66463E-003
  6.40000E-003	  1.96658E-003
  7.20000E-003	  1.96377E-003
  8.00000E-003	  1.96170E-003
  8.80000E-003	  1.96127E-003
  9.60000E-003	  1.95884E-003
  1.04000E-002	  1.95600E-003
  1.12000E-002	  1.95423E-003
  1.20000E-002	  1.95264E-003
  1.28000E-002	  1.48850E-003
  1.44000E-002	  1.48549E-003
  1.60000E-002	  1.48240E-003
  1.76000E-002	  1.47981E-003
  1.92000E-002	  1.47623E-003
  2.08000E-002	  1.47338E-003
  2.24000E-002	  1.46947E-003
  2.40000E-002	  1.46674E-003
  2.56000E-002	  1.16996E-003
  2.88000E-002	  1.16386E-003
  3.20000E-002	  1.15860E-003
  3.52000E-002	  1.15298E-003
  3.84000E-002	  1.14792E-003
  4.16000E-002	  1.14254E-003
  4.48000E-002	  1.13728E-003
  4.80000E-002	  1.13245E-003
  5.12000E-002	  9.48707E-004
  5.76000E-002	  9.38182E-004
  6.40000E-002	  9.28884E-004
  7.04000E-002	  9.19883E-004
  7.68000E-002	  9.11153E-004
  8.32000E-002	  9.02813E-004
  8.96000E-002	  8.94679E-004
  9.60000E-002	  8.87036E-004
  1.02400E-001	  7.73088E-004
  1.15200E-001	  7.57739E-004
  1.28000E-001	  7.44485E-004
  1.40800E-001	  7.32055E-004
  1.53600E-001	  7.20769E-004
  1.66400E-001	  7.10603E-004
  1.79200E-001	  7.01791E-004
  1.92000E-001	  6.94263E-004
  2.04800E-001	  6.18327E-004
  2.30400E-001	  6.06096E-004
  2.56000E-001	  5.96905E-004
  2.81600E-001	  5.89177E-004
  3.07200E-001	  5.83385E-004
  3.32800E-001	  5.78546E-004
  3.58400E-001	  5.74947E-004
  3.84000E-001	  5.72021E-004
  4.09600E-001	  5.18565E-004
  4.60800E-001	  5.14550E-004
  5.12000E-001	  5.12227E-004
  5.63200E-001	  5.10274E-004
  6.14400E-001	  5.09419E-004
  6.65600E-001	  5.08849E-004
  7.16800E-001	  5.06600E-004
  7.68000E-001	  5.06600E-004
  8.19200E-001	  4.76151E-004
  9.21600E-001	  4.76151E-004
  1.02400E+000	  4.76151E-004
  1.12640E+000	  4.76151E-004
  1.22880E+000	  4.76151E-004
  1.33120E+000	  4.76151E-004
  1.43360E+000	  4.76151E-004
  1.53600E+000	  4.76151E-004
  1.63840E+000	  4.26185E-004
  1.84320E+000	  4.26185E-004
  2.04800E+000	  4.26185E-004
  2.25280E+000	  4.26185E-004
  2.45760E+000	  4.26185E-004
  2.66240E+000	  4.26185E-004
  2.86720E+000	  4.26185E-004
  3.07200E+000	  4.26185E-004
  3.27680E+000	  3.60340E-004
  3.68640E+000	  3.60340E-004
  4.09600E+000	  3.60340E-004
  4.50560E+000	  3.60340E-004
  4.91520E+000	  3.60340E-004
  5.32480E+000	  3.60340E-004
  5.73440E+000	  3.60340E-004
  6.14400E+000	  3.60340E-004
  6.55360E+000	  2.86069E-004
  7.37280E+000	  2.86069E-004
  8.19200E+000	  2.86069E-004
  9.01120E+000	  2.86069E-004
  9.83040E+000	  2.86069E-004
  1.06496E+001	  2.86069E-004
  1.14688E+001	  2.86069E-004
  1.22880E+001	  2.86069E-004
  1.31072E+001	  2.15622E-004
  1.47456E+001	  2.15622E-004
  1.63840E+001	  2.15622E-004
  1.80224E+001	  2.15622E-004
  1.96608E+001	  2.15622E-004
  2.12992E+001	  2.15622E-004
  2.29376E+001	  2.15622E-004
  2.45760E+001	  2.15622E-004
  2.62144E+001	  1.57294E-004
  2.94912E+001	  1.57294E-004
  3.27680E+001	  1.57294E-004
  3.60448E+001	  1.57294E-004
  3.93216E+001	  1.57294E-004
  4.25984E+001	  1.57294E-004
  4.58752E+001	  1.57294E-004
  4.91520E+001	  1.57294E-004
  5.24288E+001	  1.12932E-004
  5.89824E+001	  1.12932E-004
  6.55360E+001	  1.12932E-004
  7.20896E+001	  1.12932E-004
  7.86432E+001	  1.12932E-004
  8.51968E+001	  1.12932E-004
  9.17504E+001	  1.12932E-004
  9.83040E+001	  1.12932E-004
  1.04858E+002	  8.04586E-005
  1.17965E+002	  8.04586E-005
  1.31072E+002	  8.04586E-005
  1.44179E+002	  8.04586E-005
  1.57286E+002	  8.04586E-005
  1.70394E+002	  8.04586E-005
  1.83501E+002	  8.04586E-005
  1.96608E+002	  8.04586E-005
  2.09715E+002	  5.71063E-005
  2.35930E+002	  5.71063E-005
  2.62144E+002	  5.71063E-005
  2.88358E+002	  5.71063E-005
  3.14573E+002	  5.71063E-005
  3.40787E+002	  5.71063E-005
  3.67002E+002	  5.71063E-005
  3.93216E+002	  5.71063E-005
  4.19430E+002	  4.04557E-005
  4.71859E+002	  4.04557E-005
  5.24288E+002	  4.04557E-005
  5.76717E+002	  4.04557E-005
  6.29146E+002	  4.04557E-005
  6.81574E+002	  4.04557E-005
  7.34003E+002	  4.04557E-005
  7.86432E+002	  4.04557E-005
  8.38861E+002	  2.86332E-005
  9.43718E+002	  2.86332E-005
  1.04858E+003	  2.86332E-005
  1.15343E+003	  2.86332E-005
  1.25829E+003	  2.86332E-005
  1.36315E+003	  2.86332E-005
  1.46801E+003	  2.86332E-005
  1.57286E+003	  2.86332E-005
  1.67772E+003	  2.02562E-005
  1.88744E+003	  2.02562E-005
  2.09715E+003	  2.02562E-005
  2.30687E+003	  2.02562E-005
  2.51658E+003	  2.02562E-005
  2.72630E+003	  2.02562E-005
  2.93601E+003	  2.02562E-005
  3.14573E+003	  2.02562E-005
  3.35544E+003	  1.43266E-005
  3.77487E+003	  1.43266E-005
  4.19430E+003	  1.43266E-005
  4.61373E+003	  1.43266E-005
  5.03317E+003	  1.43266E-005
  5.45260E+003	  1.43266E-005
  5.87203E+003	  1.43266E-005
  6.29146E+003	  1.43266E-005
  6.71089E+003	  1.01316E-005
  7.54975E+003	  1.01316E-005
  8.38861E+003	  1.01316E-005
  9.22747E+003	  1.01316E-005
  1.00663E+004	  1.01316E-005
  1.09052E+004	  1.01316E-005
  1.17441E+004	  1.01316E-005
