TITLE	BSA_c15_g1over15_8.3mMYCl3
DATA TYPE	ULTRAVIOLET SPECTRUM
ORIGIN	JASCO
OWNER	TOF
DATE	10/03/28
TIME	12:53:28
SPECTROMETER/DATA SYSTEM	
LOCALE	2057
RESOLUTION	
DELTAX	-0.5
XUNITS	NANOMETERS
YUNITS	ABSORBANCE
FIRSTX	  800.0000
LASTX	  250.0000
NPOINTS	    1101
FIRSTY	     0.00202
MAXY	     0.54365
MINY	     0.00175
XYDATA
800.0000	0.00202355
799.5000	0.00199246
799.0000	0.00197705
798.5000	0.00195348
798.0000	0.00195744
797.5000	0.00197795
797.0000	0.00196973
796.5000	0.00196453
796.0000	0.00194237
795.5000	0.0019689
795.0000	0.00198438
794.5000	0.00204527
794.0000	0.00206552
793.5000	0.00207446
793.0000	0.00205533
792.5000	0.00204368
792.0000	0.00202832
791.5000	0.00198626
791.0000	0.00195144
790.5000	0.00194931
790.0000	0.00195218
789.5000	0.00198245
789.0000	0.00199047
788.5000	0.00199283
788.0000	0.00198489
787.5000	0.00194303
787.0000	0.00192732
786.5000	0.00190746
786.0000	0.00189318
785.5000	0.00189646
785.0000	0.00191619
784.5000	0.00196846
784.0000	0.0019876
783.5000	0.00198552
783.0000	0.00199812
782.5000	0.00197508
782.0000	0.00194496
781.5000	0.00191109
781.0000	0.00189862
780.5000	0.00194796
780.0000	0.00197007
779.5000	0.00193611
779.0000	0.00190479
778.5000	0.00187799
778.0000	0.00188921
777.5000	0.00190725
777.0000	0.00189236
776.5000	0.00188634
776.0000	0.00189474
775.5000	0.00191688
775.0000	0.00194961
774.5000	0.00196232
774.0000	0.00195702
773.5000	0.00194416
773.0000	0.00193368
772.5000	0.00195009
772.0000	0.00197298
771.5000	0.0019845
771.0000	0.00197093
770.5000	0.00195088
770.0000	0.0019316
769.5000	0.00191319
769.0000	0.00191069
768.5000	0.00189422
768.0000	0.00189835
767.5000	0.00186799
767.0000	0.00188341
766.5000	0.00184242
766.0000	0.00181868
765.5000	0.00179464
765.0000	0.00180015
764.5000	0.00181989
764.0000	0.00184598
763.5000	0.00183936
763.0000	0.00184911
762.5000	0.00181402
762.0000	0.00181259
761.5000	0.00184206
761.0000	0.00188857
760.5000	0.0019347
760.0000	0.00194343
759.5000	0.00194963
759.0000	0.00193095
758.5000	0.00193825
758.0000	0.00190258
757.5000	0.00188546
757.0000	0.0018834
756.5000	0.00190871
756.0000	0.00190858
755.5000	0.00189106
755.0000	0.00188448
754.5000	0.00187906
754.0000	0.00185005
753.5000	0.00182357
753.0000	0.00180452
752.5000	0.00181278
752.0000	0.00181658
751.5000	0.0018146
751.0000	0.0018172
750.5000	0.00183127
750.0000	0.00183052
749.5000	0.00179651
749.0000	0.00177921
748.5000	0.00178315
748.0000	0.00180849
747.5000	0.00181383
747.0000	0.0017948
746.5000	0.00176124
746.0000	0.00177007
745.5000	0.00176697
745.0000	0.00180758
744.5000	0.0018332
744.0000	0.00185546
743.5000	0.00182054
743.0000	0.00179291
742.5000	0.00178776
742.0000	0.00181511
741.5000	0.00186029
741.0000	0.00189758
740.5000	0.00192057
740.0000	0.00176976
739.5000	0.00177811
739.0000	0.00176072
738.5000	0.00175604
738.0000	0.00175336
737.5000	0.00181475
737.0000	0.00188902
736.5000	0.00199259
736.0000	0.00208907
735.5000	0.00219213
735.0000	0.00229049
734.5000	0.00242108
734.0000	0.00256075
733.5000	0.00274454
733.0000	0.00296045
732.5000	0.00323826
732.0000	0.00356488
731.5000	0.00393145
731.0000	0.00438482
730.5000	0.00489169
730.0000	0.00534066
729.5000	0.00573402
729.0000	0.0059865
728.5000	0.0061013
728.0000	0.00605524
727.5000	0.00585195
727.0000	0.00551881
726.5000	0.00512784
726.0000	0.00468664
725.5000	0.00426082
725.0000	0.0038568
724.5000	0.00352112
724.0000	0.00328466
723.5000	0.00314079
723.0000	0.00309265
722.5000	0.00309319
722.0000	0.00309437
721.5000	0.00310907
721.0000	0.00309913
720.5000	0.00309249
720.0000	0.00306874
719.5000	0.00303622
719.0000	0.00298492
718.5000	0.00293311
718.0000	0.00293268
717.5000	0.00293393
717.0000	0.00294054
716.5000	0.0029224
716.0000	0.00293647
715.5000	0.00293389
715.0000	0.00295452
714.5000	0.00292473
714.0000	0.00291836
713.5000	0.002895
713.0000	0.00287829
712.5000	0.00289225
712.0000	0.00291364
711.5000	0.00292961
711.0000	0.00291388
710.5000	0.00289925
710.0000	0.00289098
709.5000	0.00289927
709.0000	0.00289182
708.5000	0.00287503
708.0000	0.0028575
707.5000	0.00286213
707.0000	0.00286697
706.5000	0.00288363
706.0000	0.00288513
705.5000	0.00288912
705.0000	0.00290974
704.5000	0.00292955
704.0000	0.00296817
703.5000	0.00298535
703.0000	0.00298104
702.5000	0.00297205
702.0000	0.00294006
701.5000	0.00294885
701.0000	0.00292737
700.5000	0.00292067
700.0000	0.00290488
699.5000	0.0029279
699.0000	0.00293527
698.5000	0.0029242
698.0000	0.00291216
697.5000	0.00289109
697.0000	0.00289224
696.5000	0.0028885
696.0000	0.00292043
695.5000	0.00296937
695.0000	0.00299993
694.5000	0.00301277
694.0000	0.00301432
693.5000	0.0030036
693.0000	0.00301753
692.5000	0.00303976
692.0000	0.00305844
691.5000	0.00307952
691.0000	0.0031055
690.5000	0.00313466
690.0000	0.00312477
689.5000	0.00312404
689.0000	0.00312203
688.5000	0.00319065
688.0000	0.00322909
687.5000	0.00323451
687.0000	0.00322131
686.5000	0.00323995
686.0000	0.00326789
685.5000	0.00329759
685.0000	0.00331605
684.5000	0.00333318
684.0000	0.00333046
683.5000	0.0033356
683.0000	0.00335677
682.5000	0.00337124
682.0000	0.0033997
681.5000	0.00340024
681.0000	0.00340684
680.5000	0.00339978
680.0000	0.00340876
679.5000	0.00346188
679.0000	0.003495
678.5000	0.0035309
678.0000	0.00355067
677.5000	0.00357772
677.0000	0.00360391
676.5000	0.00364048
676.0000	0.00366163
675.5000	0.0036757
675.0000	0.0036696
674.5000	0.00369542
674.0000	0.00371783
673.5000	0.00374385
673.0000	0.00375346
672.5000	0.00374875
672.0000	0.00373805
671.5000	0.00376567
671.0000	0.00382408
670.5000	0.00392388
670.0000	0.00396955
669.5000	0.00398866
669.0000	0.00397096
668.5000	0.00396326
668.0000	0.0039749
667.5000	0.00400477
667.0000	0.00401963
666.5000	0.0040408
666.0000	0.00403527
665.5000	0.00404999
665.0000	0.00405242
664.5000	0.00404103
664.0000	0.00406141
663.5000	0.00408965
663.0000	0.00409961
662.5000	0.00412189
662.0000	0.00415439
661.5000	0.00420012
661.0000	0.00422372
660.5000	0.00421773
660.0000	0.00422273
659.5000	0.00421174
659.0000	0.0042084
658.5000	0.004214
658.0000	0.00423183
657.5000	0.00426884
657.0000	0.00430073
656.5000	0.00433782
656.0000	0.00434383
655.5000	0.00435714
655.0000	0.00437773
654.5000	0.00440955
654.0000	0.00443284
653.5000	0.0044464
653.0000	0.00444968
652.5000	0.0044691
652.0000	0.00448107
651.5000	0.00450644
651.0000	0.0045103
650.5000	0.00454406
650.0000	0.0045677
649.5000	0.00461641
649.0000	0.00463149
648.5000	0.00465266
648.0000	0.00466321
647.5000	0.00465714
647.0000	0.00467533
646.5000	0.00468242
646.0000	0.00471873
645.5000	0.00473008
645.0000	0.00477359
644.5000	0.00479767
644.0000	0.00483218
643.5000	0.0048667
643.0000	0.0048586
642.5000	0.00485877
642.0000	0.00482413
641.5000	0.00481949
641.0000	0.00481278
640.5000	0.00483385
640.0000	0.00486913
639.5000	0.00488333
639.0000	0.0048944
638.5000	0.00490464
638.0000	0.00492456
637.5000	0.00494228
637.0000	0.00497529
636.5000	0.00499562
636.0000	0.00503426
635.5000	0.00509668
635.0000	0.00513689
634.5000	0.00516201
634.0000	0.00516607
633.5000	0.0051608
633.0000	0.00517063
632.5000	0.00517467
632.0000	0.00518484
631.5000	0.00520546
631.0000	0.00523036
630.5000	0.00524197
630.0000	0.00525248
629.5000	0.00524594
629.0000	0.00525061
628.5000	0.00523456
628.0000	0.00520976
627.5000	0.00519175
627.0000	0.00519663
626.5000	0.00524677
626.0000	0.00530783
625.5000	0.00535723
625.0000	0.00538077
624.5000	0.00536763
624.0000	0.00539636
623.5000	0.005414
623.0000	0.00542516
622.5000	0.00544479
622.0000	0.00546327
621.5000	0.00545729
621.0000	0.00543474
620.5000	0.00541216
620.0000	0.0054013
619.5000	0.00538969
619.0000	0.00538316
618.5000	0.00540067
618.0000	0.00543269
617.5000	0.00542526
617.0000	0.0054202
616.5000	0.00542744
616.0000	0.00543356
615.5000	0.00543434
615.0000	0.00542353
614.5000	0.00543208
614.0000	0.00545592
613.5000	0.00548588
613.0000	0.00548274
612.5000	0.0054719
612.0000	0.00547399
611.5000	0.0055122
611.0000	0.00554516
610.5000	0.00555726
610.0000	0.00558186
609.5000	0.00558823
609.0000	0.00559556
608.5000	0.00562238
608.0000	0.00565678
607.5000	0.00570113
607.0000	0.00571594
606.5000	0.00574762
606.0000	0.00574721
605.5000	0.00575893
605.0000	0.00576282
604.5000	0.00579568
604.0000	0.00581356
603.5000	0.00583161
603.0000	0.00583819
602.5000	0.00584692
602.0000	0.00585178
601.5000	0.00586751
601.0000	0.00590187
600.5000	0.0059002
600.0000	0.00592103
599.5000	0.00591319
599.0000	0.00594113
598.5000	0.00592748
598.0000	0.00594616
597.5000	0.00590191
597.0000	0.00588495
596.5000	0.00582259
596.0000	0.00582705
595.5000	0.00584097
595.0000	0.00589201
594.5000	0.00590799
594.0000	0.00593155
593.5000	0.00593342
593.0000	0.00591636
592.5000	0.00592489
592.0000	0.00590185
591.5000	0.00592398
591.0000	0.00591413
590.5000	0.00591605
590.0000	0.00587665
589.5000	0.00588897
589.0000	0.00590454
588.5000	0.00595639
588.0000	0.005973
587.5000	0.00595975
587.0000	0.00592424
586.5000	0.005903
586.0000	0.00589591
585.5000	0.00589902
585.0000	0.00589841
584.5000	0.00590471
584.0000	0.00590275
583.5000	0.00593677
583.0000	0.00595898
582.5000	0.00599226
582.0000	0.00596625
581.5000	0.00591774
581.0000	0.00589209
580.5000	0.00586369
580.0000	0.00588454
579.5000	0.00592508
579.0000	0.00594196
578.5000	0.00595421
578.0000	0.00595797
577.5000	0.00593578
577.0000	0.00596014
576.5000	0.00595411
576.0000	0.00598155
575.5000	0.00597517
575.0000	0.00598517
574.5000	0.00596858
574.0000	0.0059707
573.5000	0.00596779
573.0000	0.00598382
572.5000	0.00598472
572.0000	0.00595477
571.5000	0.00594614
571.0000	0.00595014
570.5000	0.00595848
570.0000	0.00598575
569.5000	0.00599392
569.0000	0.00596495
568.5000	0.00589016
568.0000	0.00585368
567.5000	0.00584392
567.0000	0.00587893
566.5000	0.00586559
566.0000	0.00588944
565.5000	0.00589992
565.0000	0.00592683
564.5000	0.00592095
564.0000	0.00591125
563.5000	0.00588847
563.0000	0.00587499
562.5000	0.00587063
562.0000	0.00586841
561.5000	0.00587215
561.0000	0.00582818
560.5000	0.00580666
560.0000	0.00579827
559.5000	0.00579356
559.0000	0.00581343
558.5000	0.00581087
558.0000	0.0058499
557.5000	0.00587205
557.0000	0.00589668
556.5000	0.00587181
556.0000	0.00586025
555.5000	0.00584488
555.0000	0.00585187
554.5000	0.00585733
554.0000	0.00584475
553.5000	0.00584257
553.0000	0.00587361
552.5000	0.00586864
552.0000	0.00586805
551.5000	0.00585401
551.0000	0.00585177
550.5000	0.00583344
550.0000	0.00578535
549.5000	0.00577379
549.0000	0.00578479
548.5000	0.00578034
548.0000	0.00579614
547.5000	0.00578397
547.0000	0.00581999
546.5000	0.00580888
546.0000	0.0058281
545.5000	0.00578526
545.0000	0.00577256
544.5000	0.00577192
544.0000	0.00581953
543.5000	0.00584336
543.0000	0.00586109
542.5000	0.00585521
542.0000	0.00587364
541.5000	0.00588036
541.0000	0.00587914
540.5000	0.00583874
540.0000	0.00584069
539.5000	0.00585688
539.0000	0.00585357
538.5000	0.00585727
538.0000	0.0058682
537.5000	0.00590399
537.0000	0.0059571
536.5000	0.00597959
536.0000	0.00599206
535.5000	0.00597282
535.0000	0.0059617
534.5000	0.00593541
534.0000	0.00591727
533.5000	0.0059095
533.0000	0.00591335
532.5000	0.00596241
532.0000	0.00594863
531.5000	0.0059796
531.0000	0.00595918
530.5000	0.00595544
530.0000	0.00594343
529.5000	0.00594696
529.0000	0.0059373
528.5000	0.00595883
528.0000	0.00591656
527.5000	0.00591512
527.0000	0.00590019
526.5000	0.00592731
526.0000	0.00597218
525.5000	0.00596241
525.0000	0.00593424
524.5000	0.00587836
524.0000	0.00585604
523.5000	0.00585525
523.0000	0.00588384
522.5000	0.00589767
522.0000	0.00590022
521.5000	0.00586654
521.0000	0.0058475
520.5000	0.00583392
520.0000	0.00586548
519.5000	0.00587069
519.0000	0.00590965
518.5000	0.00591686
518.0000	0.00593302
517.5000	0.00591678
517.0000	0.00594721
516.5000	0.00596955
516.0000	0.00604274
515.5000	0.00606315
515.0000	0.00606296
514.5000	0.00604587
514.0000	0.00598987
513.5000	0.0059778
513.0000	0.00599049
512.5000	0.0060182
512.0000	0.00603657
511.5000	0.00602623
511.0000	0.00601063
510.5000	0.00600852
510.0000	0.00601074
509.5000	0.00604306
509.0000	0.00605164
508.5000	0.00602022
508.0000	0.00598217
507.5000	0.00593771
507.0000	0.00596342
506.5000	0.00600094
506.0000	0.00604869
505.5000	0.00608826
505.0000	0.0060883
504.5000	0.00610028
504.0000	0.00608072
503.5000	0.00609529
503.0000	0.00608664
502.5000	0.00611164
502.0000	0.00612358
501.5000	0.00614579
501.0000	0.00615476
500.5000	0.00616632
500.0000	0.00615162
499.5000	0.00617794
499.0000	0.00616723
498.5000	0.0061935
498.0000	0.00622774
497.5000	0.00623645
497.0000	0.00621088
496.5000	0.00621097
496.0000	0.00625119
495.5000	0.00627628
495.0000	0.00628813
494.5000	0.00628474
494.0000	0.00628671
493.5000	0.00630639
493.0000	0.00629927
492.5000	0.00633171
492.0000	0.00634797
491.5000	0.00636559
491.0000	0.00636777
490.5000	0.00633069
490.0000	0.00632213
489.5000	0.00629766
489.0000	0.00630676
488.5000	0.00633615
488.0000	0.00640161
487.5000	0.0064483
487.0000	0.00645365
486.5000	0.00642172
486.0000	0.00638733
485.5000	0.00637641
485.0000	0.00638028
484.5000	0.00641596
484.0000	0.00646121
483.5000	0.00651297
483.0000	0.00654591
482.5000	0.00655774
482.0000	0.0065419
481.5000	0.00651925
481.0000	0.00652991
480.5000	0.00653426
480.0000	0.0065632
479.5000	0.00655546
479.0000	0.00655098
478.5000	0.00655587
478.0000	0.00655585
477.5000	0.00660189
477.0000	0.006618
476.5000	0.00664476
476.0000	0.00663563
475.5000	0.00666278
475.0000	0.00664554
474.5000	0.00666644
474.0000	0.00667083
473.5000	0.00669963
473.0000	0.00672186
472.5000	0.0067335
472.0000	0.006737
471.5000	0.00674119
471.0000	0.00675642
470.5000	0.00676784
470.0000	0.00676113
469.5000	0.00675523
469.0000	0.00673985
468.5000	0.00677311
468.0000	0.00679065
467.5000	0.00684913
467.0000	0.00683572
466.5000	0.00687413
466.0000	0.00684557
465.5000	0.00688713
465.0000	0.00690001
464.5000	0.00695622
464.0000	0.00696968
463.5000	0.00698523
463.0000	0.00696176
462.5000	0.0069439
462.0000	0.00693907
461.5000	0.00697358
461.0000	0.00703348
460.5000	0.00704136
460.0000	0.0070378
459.5000	0.00701357
459.0000	0.00701767
458.5000	0.00703877
458.0000	0.00705867
457.5000	0.00706094
457.0000	0.00703909
456.5000	0.0070235
456.0000	0.00704006
455.5000	0.00706387
455.0000	0.00711669
454.5000	0.00715067
454.0000	0.00715777
453.5000	0.00711996
453.0000	0.00709201
452.5000	0.00704682
452.0000	0.00702267
451.5000	0.00699223
451.0000	0.0069821
450.5000	0.0069307
450.0000	0.00689639
449.5000	0.00695546
449.0000	0.00701938
448.5000	0.00704946
448.0000	0.00701721
447.5000	0.00696992
447.0000	0.00699486
446.5000	0.00703057
446.0000	0.00707181
445.5000	0.00713272
445.0000	0.00718594
444.5000	0.00721852
444.0000	0.0072291
443.5000	0.00723944
443.0000	0.00726078
442.5000	0.00726708
442.0000	0.00728577
441.5000	0.00729475
441.0000	0.00734032
440.5000	0.00740724
440.0000	0.00744545
439.5000	0.00747542
439.0000	0.00745024
438.5000	0.00751989
438.0000	0.00757894
437.5000	0.00761169
437.0000	0.00756078
436.5000	0.00753325
436.0000	0.00751344
435.5000	0.00754978
435.0000	0.00755672
434.5000	0.00762366
434.0000	0.00766359
433.5000	0.00768908
433.0000	0.00766508
432.5000	0.00766888
432.0000	0.00772937
431.5000	0.00778763
431.0000	0.0078035
430.5000	0.00779909
430.0000	0.0078231
429.5000	0.00780871
429.0000	0.007821
428.5000	0.00784657
428.0000	0.00786622
427.5000	0.0078871
427.0000	0.00786937
426.5000	0.00789069
426.0000	0.00793144
425.5000	0.00797316
425.0000	0.0080156
424.5000	0.00803675
424.0000	0.00802411
423.5000	0.00806304
423.0000	0.00806487
422.5000	0.00811065
422.0000	0.00814078
421.5000	0.00819316
421.0000	0.00818986
420.5000	0.00820304
420.0000	0.00817131
419.5000	0.00820332
419.0000	0.00826894
418.5000	0.00831659
418.0000	0.00836929
417.5000	0.00840546
417.0000	0.00839569
416.5000	0.00839423
416.0000	0.00838542
415.5000	0.00842986
415.0000	0.00844745
414.5000	0.00849703
414.0000	0.00849803
413.5000	0.00850427
413.0000	0.0084855
412.5000	0.00852394
412.0000	0.00855942
411.5000	0.00857733
411.0000	0.00860461
410.5000	0.00859049
410.0000	0.00859534
409.5000	0.00855453
409.0000	0.00852107
408.5000	0.00844591
408.0000	0.00846147
407.5000	0.00849048
407.0000	0.00853451
406.5000	0.00854523
406.0000	0.00853009
405.5000	0.00843207
405.0000	0.00842097
404.5000	0.00843745
404.0000	0.00849934
403.5000	0.00852682
403.0000	0.00854978
402.5000	0.00855406
402.0000	0.00866804
401.5000	0.00868793
401.0000	0.00885354
400.5000	0.00884898
400.0000	0.00897248
399.5000	0.00905001
399.0000	0.00923388
398.5000	0.0093931
398.0000	0.00959493
397.5000	0.00974101
397.0000	0.00989782
396.5000	0.0101034
396.0000	0.0102588
395.5000	0.0104801
395.0000	0.0106958
394.5000	0.0108758
394.0000	0.0111167
393.5000	0.0114123
393.0000	0.0116443
392.5000	0.011859
392.0000	0.0120076
391.5000	0.0121913
391.0000	0.0123145
390.5000	0.0124999
390.0000	0.0126598
389.5000	0.0128836
389.0000	0.0130092
388.5000	0.013111
388.0000	0.013147
387.5000	0.0132362
387.0000	0.0132503
386.5000	0.0132541
386.0000	0.0132405
385.5000	0.0132353
385.0000	0.0131471
384.5000	0.0130625
384.0000	0.0129249
383.5000	0.0128389
383.0000	0.0127137
382.5000	0.0125481
382.0000	0.0123806
381.5000	0.0123755
381.0000	0.012398
380.5000	0.0124661
380.0000	0.012399
379.5000	0.0123086
379.0000	0.012192
378.5000	0.0121484
378.0000	0.0120478
377.5000	0.0119723
377.0000	0.0118063
376.5000	0.011877
376.0000	0.0119203
375.5000	0.012
375.0000	0.011875
374.5000	0.0118207
374.0000	0.0118339
373.5000	0.0118107
373.0000	0.0117414
372.5000	0.0116594
372.0000	0.0115986
371.5000	0.0117325
371.0000	0.0118544
370.5000	0.0118608
370.0000	0.0117155
369.5000	0.0120512
369.0000	0.0121482
368.5000	0.0120969
368.0000	0.0120527
367.5000	0.0120058
367.0000	0.0120375
366.5000	0.0120915
366.0000	0.0120448
365.5000	0.0120932
365.0000	0.0120777
364.5000	0.0118768
364.0000	0.0118871
363.5000	0.0117974
363.0000	0.0119671
362.5000	0.0122365
362.0000	0.0121673
361.5000	0.0121931
361.0000	0.0121185
360.5000	0.0120292
360.0000	0.0119855
359.5000	0.0119809
359.0000	0.0121329
358.5000	0.0122729
358.0000	0.0124021
357.5000	0.0125524
357.0000	0.0127231
356.5000	0.0128164
356.0000	0.0126653
355.5000	0.0126583
355.0000	0.0127992
354.5000	0.0129141
354.0000	0.0131833
353.5000	0.0132066
353.0000	0.0131433
352.5000	0.0129532
352.0000	0.0130518
351.5000	0.0130841
351.0000	0.0131728
350.5000	0.0132217
350.0000	0.0132201
349.5000	0.013395
349.0000	0.0133784
348.5000	0.0133915
348.0000	0.0134309
347.5000	0.0134694
347.0000	0.0135839
346.5000	0.0137328
346.0000	0.0138667
345.5000	0.0140454
345.0000	0.0140982
344.5000	0.0141592
344.0000	0.014055
343.5000	0.0140182
343.0000	0.0140442
342.5000	0.0141782
342.0000	0.014213
341.5000	0.0142584
341.0000	0.0141969
340.5000	0.0141555
340.0000	0.0152944
339.5000	0.015271
339.0000	0.0151276
338.5000	0.0149784
338.0000	0.0153353
337.5000	0.0157271
337.0000	0.0159582
336.5000	0.015788
336.0000	0.0155539
335.5000	0.0157673
335.0000	0.015815
334.5000	0.0162643
334.0000	0.0165642
333.5000	0.016736
333.0000	0.0170227
332.5000	0.016765
332.0000	0.0166747
331.5000	0.0164926
331.0000	0.0168761
330.5000	0.0168529
330.0000	0.017404
329.5000	0.0172935
329.0000	0.0173889
328.5000	0.0171971
328.0000	0.0175924
327.5000	0.0174106
327.0000	0.017324
326.5000	0.0172133
326.0000	0.0174973
325.5000	0.0177139
325.0000	0.0179756
324.5000	0.018075
324.0000	0.0180636
323.5000	0.0179605
323.0000	0.0180961
322.5000	0.0181539
322.0000	0.0185489
321.5000	0.0186281
321.0000	0.0186028
320.5000	0.018786
320.0000	0.0190398
319.5000	0.0193075
319.0000	0.0192383
318.5000	0.0191095
318.0000	0.0196005
317.5000	0.0197349
317.0000	0.0199988
316.5000	0.0198006
316.0000	0.0201182
315.5000	0.020267
315.0000	0.0205912
314.5000	0.0207734
314.0000	0.0208193
313.5000	0.0212363
313.0000	0.0213737
312.5000	0.0218703
312.0000	0.0222353
311.5000	0.0223342
311.0000	0.0225191
310.5000	0.0228529
310.0000	0.0229875
309.5000	0.0236673
309.0000	0.0242309
308.5000	0.0250384
308.0000	0.0255841
307.5000	0.0262794
307.0000	0.026879
306.5000	0.0276724
306.0000	0.0287773
305.5000	0.029788
305.0000	0.0311708
304.5000	0.0323443
304.0000	0.0337928
303.5000	0.0353898
303.0000	0.0371021
302.5000	0.0389809
302.0000	0.041143
301.5000	0.0436006
301.0000	0.0462232
300.5000	0.0488171
300.0000	0.0517009
299.5000	0.055223
299.0000	0.0593855
298.5000	0.0635849
298.0000	0.0683433
297.5000	0.0733668
297.0000	0.0790409
296.5000	0.0855815
296.0000	0.0931038
295.5000	0.101317
295.0000	0.110826
294.5000	0.121818
294.0000	0.134305
293.5000	0.148256
293.0000	0.1635
292.5000	0.180726
292.0000	0.198911
291.5000	0.218273
291.0000	0.23783
290.5000	0.258117
290.0000	0.278585
289.5000	0.299313
289.0000	0.319981
288.5000	0.34101
288.0000	0.362038
287.5000	0.382645
287.0000	0.40283
286.5000	0.42182
286.0000	0.439165
285.5000	0.454059
285.0000	0.467218
284.5000	0.478322
284.0000	0.487437
283.5000	0.494987
283.0000	0.501505
282.5000	0.507452
282.0000	0.513303
281.5000	0.518854
281.0000	0.524862
280.5000	0.530479
280.0000	0.535534
279.5000	0.539518
279.0000	0.542206
278.5000	0.543651
278.0000	0.54326
277.5000	0.541616
277.0000	0.538356
276.5000	0.534019
276.0000	0.528921
275.5000	0.523266
275.0000	0.517184
274.5000	0.510931
274.0000	0.504252
273.5000	0.497286
273.0000	0.490313
272.5000	0.483269
272.0000	0.476298
271.5000	0.469241
271.0000	0.46308
270.5000	0.45705
270.0000	0.450993
269.5000	0.445203
269.0000	0.438873
268.5000	0.431975
268.0000	0.423857
267.5000	0.41521
267.0000	0.407208
266.5000	0.400196
266.0000	0.394246
265.5000	0.38864
265.0000	0.382295
264.5000	0.374352
264.0000	0.364967
263.5000	0.354867
263.0000	0.345752
262.5000	0.33823
262.0000	0.332029
261.5000	0.326934
261.0000	0.322439
260.5000	0.318523
260.0000	0.315207
259.5000	0.311876
259.0000	0.307673
258.5000	0.301766
258.0000	0.294079
257.5000	0.28564
257.0000	0.277454
256.5000	0.27042
256.0000	0.26488
255.5000	0.260892
255.0000	0.258061
254.5000	0.256299
254.0000	0.255371
253.5000	0.25473
253.0000	0.25383
252.5000	0.252407
252.0000	0.250848
251.5000	0.249327
251.0000	0.248722
250.5000	0.249305
250.0000	0.251751

##### Extended Information
[Comment]
Sample Name	BSA_c15_g1over15_8.3mMYCl3
Comment	8.3mMYCl3
User	FZ
Division	TOF
Company	ILL

[Data Information]
Creation Date	28/03/2010 12:53
Data array type	Linear data array
Horizontal	Wavelength [nm]
Vertical	Abs
Start	800 nm
End	250 nm
Data pitch	0.5 nm
Data points	1101    

[Measurement Information]
Instrument Name	UV/Vis
Model Name	V-630
Serial No.	A062261148

Accessory	HMC-711
Accessory S/N	B001961107
  Cell Length	10 mm
  Temperature	25.00 C

Photometric Mode	Abs
Measurement range	800 - 250 nm
Data pitch	0.5 nm
Band width(UV/Vis)	1.5 nm
Response	Fast
Scanning speed	400 nm/min
Source Change	340 nm
Light Source	D2/WI
Filter Exchange	Step
Correction	Baseline

