TITLE	BSA_c1_g1_83mMYCl3_rep2
DATA TYPE	ULTRAVIOLET SPECTRUM
ORIGIN	JASCO
OWNER	TOF
DATE	10/03/28
TIME	12:28:43
SPECTROMETER/DATA SYSTEM	
LOCALE	2057
RESOLUTION	
DELTAX	-0.5
XUNITS	NANOMETERS
YUNITS	ABSORBANCE
FIRSTX	  800.0000
LASTX	  250.0000
NPOINTS	    1101
FIRSTY	    -0.00163
MAXY	     0.62789
MINY	    -0.00163
XYDATA
800.0000	-0.00162849
799.5000	-0.00163099
799.0000	-0.00159574
798.5000	-0.00159747
798.0000	-0.00158787
797.5000	-0.00158108
797.0000	-0.00156935
796.5000	-0.00158656
796.0000	-0.0015944
795.5000	-0.00162292
795.0000	-0.00160416
794.5000	-0.00157639
794.0000	-0.0015605
793.5000	-0.00154558
793.0000	-0.00153292
792.5000	-0.00148065
792.0000	-0.00146026
791.5000	-0.00146715
791.0000	-0.00153534
790.5000	-0.00154486
790.0000	-0.00152219
789.5000	-0.00147934
789.0000	-0.00146282
788.5000	-0.00146742
788.0000	-0.00149615
787.5000	-0.00150665
787.0000	-0.00152518
786.5000	-0.00151847
786.0000	-0.00152048
785.5000	-0.00152308
785.0000	-0.00150208
784.5000	-0.00146943
784.0000	-0.00139288
783.5000	-0.00138176
783.0000	-0.00140918
782.5000	-0.00146704
782.0000	-0.00150934
781.5000	-0.00149999
781.0000	-0.00148065
780.5000	-0.00143078
780.0000	-0.00143156
779.5000	-0.00145989
779.0000	-0.00148403
778.5000	-0.00148094
778.0000	-0.00145237
777.5000	-0.00142038
777.0000	-0.00139156
776.5000	-0.00138351
776.0000	-0.00135558
775.5000	-0.0013408
775.0000	-0.00134117
774.5000	-0.00136347
774.0000	-0.00140339
773.5000	-0.00140379
773.0000	-0.00138513
772.5000	-0.00132165
772.0000	-0.00127717
771.5000	-0.00125322
771.0000	-0.00126
770.5000	-0.00128955
770.0000	-0.00130814
769.5000	-0.00133285
769.0000	-0.00133152
768.5000	-0.00130788
768.0000	-0.00127912
767.5000	-0.00125473
767.0000	-0.00125233
766.5000	-0.00127379
766.0000	-0.00129126
765.5000	-0.00127633
765.0000	-0.00127815
764.5000	-0.00127498
764.0000	-0.00126208
763.5000	-0.00124336
763.0000	-0.00120783
762.5000	-0.00119811
762.0000	-0.00119076
761.5000	-0.00117381
761.0000	-0.00115815
760.5000	-0.00111581
760.0000	-0.00109425
759.5000	-0.0010829
759.0000	-0.0010999
758.5000	-0.00111446
758.0000	-0.00111097
757.5000	-0.00113181
757.0000	-0.0011324
756.5000	-0.00115577
756.0000	-0.0011477
755.5000	-0.00111929
755.0000	-0.0010733
754.5000	-0.00108955
754.0000	-0.00109543
753.5000	-0.00109165
753.0000	-0.00105816
752.5000	-0.00102174
752.0000	-0.00103046
751.5000	-0.00106283
751.0000	-0.00110423
750.5000	-0.00112388
750.0000	-0.00111513
749.5000	-0.00111251
749.0000	-0.00109532
748.5000	-0.00107798
748.0000	-0.0010735
747.5000	-0.00107807
747.0000	-0.00104013
746.5000	-0.00098104
746.0000	-0.000964168
745.5000	-0.000945252
745.0000	-0.000941559
744.5000	-0.000926194
744.0000	-0.000903247
743.5000	-0.000871901
743.0000	-0.000819175
742.5000	-0.00080771
742.0000	-0.000817923
741.5000	-0.000828101
741.0000	-0.000790226
740.5000	-0.000742249
740.0000	-0.000651
739.5000	-0.000627788
739.0000	-0.000605238
738.5000	-0.000585931
738.0000	-0.000541548
737.5000	-0.000532477
737.0000	-0.000480255
736.5000	-0.000419231
736.0000	-0.000323011
735.5000	-0.000191072
735.0000	-8.0628E-005
734.5000	5.19703E-005
734.0000	0.00020851
733.5000	0.000383864
733.0000	0.000650138
732.5000	0.000927997
732.0000	0.00127828
731.5000	0.00163753
731.0000	0.00207815
730.5000	0.00256471
730.0000	0.00305978
729.5000	0.00349025
729.0000	0.00376529
728.5000	0.00387539
728.0000	0.00375665
727.5000	0.00347054
727.0000	0.00310778
726.5000	0.0027014
726.0000	0.00232034
725.5000	0.0019055
725.0000	0.00150825
724.5000	0.00118697
724.0000	0.000954175
723.5000	0.000818873
723.0000	0.0007653
722.5000	0.000779009
722.0000	0.00081311
721.5000	0.000848238
721.0000	0.000845304
720.5000	0.000824026
720.0000	0.000786113
719.5000	0.000773677
719.0000	0.000778714
718.5000	0.000791029
718.0000	0.000802602
717.5000	0.000833541
717.0000	0.000847857
716.5000	0.000837551
716.0000	0.000793754
715.5000	0.000761028
715.0000	0.00076617
714.5000	0.000777478
714.0000	0.000801937
713.5000	0.000777509
713.0000	0.000757328
712.5000	0.000766905
712.0000	0.000762896
711.5000	0.000767267
711.0000	0.000773504
710.5000	0.000770644
710.0000	0.000772285
709.5000	0.000767427
709.0000	0.000770901
708.5000	0.00076896
708.0000	0.000786471
707.5000	0.00077763
707.0000	0.000778807
706.5000	0.000752948
706.0000	0.000786669
705.5000	0.000829448
705.0000	0.000846582
704.5000	0.000831912
704.0000	0.000828517
703.5000	0.000841877
703.0000	0.000858794
702.5000	0.000862028
702.0000	0.000868111
701.5000	0.000871166
701.0000	0.000848792
700.5000	0.000845742
700.0000	0.000839003
699.5000	0.000869565
699.0000	0.000924721
698.5000	0.000933933
698.0000	0.000934174
697.5000	0.000915827
697.0000	0.000912997
696.5000	0.00092301
696.0000	0.000961012
695.5000	0.000977545
695.0000	0.000993037
694.5000	0.00096316
694.0000	0.000965323
693.5000	0.000946751
693.0000	0.000960462
692.5000	0.00101379
692.0000	0.00107061
691.5000	0.00108883
691.0000	0.00110036
690.5000	0.00108148
690.0000	0.0010963
689.5000	0.00108599
689.0000	0.00108817
688.5000	0.00107127
688.0000	0.00107688
687.5000	0.00109476
687.0000	0.00112926
686.5000	0.00113665
686.0000	0.00111385
685.5000	0.00109172
685.0000	0.00107583
684.5000	0.00107507
684.0000	0.00109825
683.5000	0.00112113
683.0000	0.00114964
682.5000	0.00117407
682.0000	0.00120636
681.5000	0.00118417
681.0000	0.00116228
680.5000	0.00113362
680.0000	0.00115115
679.5000	0.0011695
679.0000	0.00118162
678.5000	0.00118594
678.0000	0.00121155
677.5000	0.00122792
677.0000	0.00125065
676.5000	0.00124919
676.0000	0.00122643
675.5000	0.00118715
675.0000	0.00116049
674.5000	0.00117329
674.0000	0.00120232
673.5000	0.00119537
673.0000	0.0011851
672.5000	0.00119486
672.0000	0.00122872
671.5000	0.00122453
671.0000	0.00121869
670.5000	0.00123206
670.0000	0.0012606
669.5000	0.00129203
669.0000	0.0013253
668.5000	0.00132758
668.0000	0.00133899
667.5000	0.00132888
667.0000	0.00132982
666.5000	0.00132197
666.0000	0.00132339
665.5000	0.00134706
665.0000	0.00139238
664.5000	0.00141288
664.0000	0.00142209
663.5000	0.00144158
663.0000	0.00147495
662.5000	0.00147215
662.0000	0.0014407
661.5000	0.00142866
661.0000	0.00139682
660.5000	0.00139947
660.0000	0.00137441
659.5000	0.00138674
659.0000	0.00144138
658.5000	0.00150341
658.0000	0.00156136
657.5000	0.00160185
657.0000	0.00164189
656.5000	0.00167101
656.0000	0.00169085
655.5000	0.00168083
655.0000	0.00167579
654.5000	0.00165809
654.0000	0.00168376
653.5000	0.00173611
653.0000	0.00182699
652.5000	0.00186451
652.0000	0.00188799
651.5000	0.00183649
651.0000	0.00180431
650.5000	0.00176579
650.0000	0.00175433
649.5000	0.00177101
649.0000	0.00181574
648.5000	0.0018492
648.0000	0.00186348
647.5000	0.00187172
647.0000	0.00188501
646.5000	0.00191359
646.0000	0.00193454
645.5000	0.00195977
645.0000	0.00196021
644.5000	0.00195589
644.0000	0.00195243
643.5000	0.00195376
643.0000	0.00201067
642.5000	0.00203181
642.0000	0.00206228
641.5000	0.00205943
641.0000	0.00206635
640.5000	0.00207499
640.0000	0.00210184
639.5000	0.0021049
639.0000	0.00212375
638.5000	0.00212138
638.0000	0.00213272
637.5000	0.00213636
637.0000	0.0021494
636.5000	0.00217186
636.0000	0.00218416
635.5000	0.00220566
635.0000	0.00223636
634.5000	0.00226098
634.0000	0.00225765
633.5000	0.00226002
633.0000	0.00225055
632.5000	0.00223455
632.0000	0.0022291
631.5000	0.00225504
631.0000	0.00231224
630.5000	0.0023183
630.0000	0.00233278
629.5000	0.00229871
629.0000	0.0023248
628.5000	0.00235516
628.0000	0.00240988
627.5000	0.00243727
627.0000	0.00244447
626.5000	0.00242086
626.0000	0.00241107
625.5000	0.00242051
625.0000	0.00245944
624.5000	0.00249917
624.0000	0.00249681
623.5000	0.00247777
623.0000	0.00247335
622.5000	0.00247702
622.0000	0.00252092
621.5000	0.00251355
621.0000	0.00253114
620.5000	0.00251713
620.0000	0.00252998
619.5000	0.00252175
619.0000	0.00253844
618.5000	0.00254603
618.0000	0.00256902
617.5000	0.00260281
617.0000	0.00261591
616.5000	0.00263442
616.0000	0.00263199
615.5000	0.00263802
615.0000	0.00264988
614.5000	0.00265576
614.0000	0.00268709
613.5000	0.00271175
613.0000	0.00273193
612.5000	0.00273813
612.0000	0.00273488
611.5000	0.0027309
611.0000	0.00272486
610.5000	0.00272436
610.0000	0.00271721
609.5000	0.00273136
609.0000	0.00274796
608.5000	0.0027746
608.0000	0.00280321
607.5000	0.00282933
607.0000	0.00283309
606.5000	0.00285388
606.0000	0.00282152
605.5000	0.0028507
605.0000	0.00288654
604.5000	0.0029383
604.0000	0.00295043
603.5000	0.00293758
603.0000	0.00295305
602.5000	0.00295488
602.0000	0.00297622
601.5000	0.00298468
601.0000	0.00299192
600.5000	0.00298654
600.0000	0.00298172
599.5000	0.00298432
599.0000	0.00300424
598.5000	0.00301458
598.0000	0.00301874
597.5000	0.00300127
597.0000	0.00300186
596.5000	0.00301108
596.0000	0.00303122
595.5000	0.00307918
595.0000	0.00310798
594.5000	0.00312057
594.0000	0.00310712
593.5000	0.00310383
593.0000	0.00311262
592.5000	0.00313788
592.0000	0.00313131
591.5000	0.00313289
591.0000	0.0031348
590.5000	0.00314304
590.0000	0.00315477
589.5000	0.00316385
589.0000	0.00319523
588.5000	0.00320751
588.0000	0.00325722
587.5000	0.00327404
587.0000	0.00329889
586.5000	0.00328761
586.0000	0.00330807
585.5000	0.0033253
585.0000	0.00333867
584.5000	0.00334285
584.0000	0.00332708
583.5000	0.00334716
583.0000	0.00337405
582.5000	0.00338869
582.0000	0.00341082
581.5000	0.00342142
581.0000	0.00342793
580.5000	0.00338348
580.0000	0.00335408
579.5000	0.00336388
579.0000	0.00339686
578.5000	0.0034582
578.0000	0.00349208
577.5000	0.00350999
577.0000	0.00352573
576.5000	0.00351754
576.0000	0.00355352
575.5000	0.00357657
575.0000	0.00357848
574.5000	0.00356452
574.0000	0.00357264
573.5000	0.00358845
573.0000	0.00360665
572.5000	0.00362518
572.0000	0.00363696
571.5000	0.00364594
571.0000	0.00367464
570.5000	0.00369557
570.0000	0.00373571
569.5000	0.00373619
569.0000	0.00372192
568.5000	0.00373752
568.0000	0.00375858
567.5000	0.00377011
567.0000	0.00377142
566.5000	0.00375519
566.0000	0.00374846
565.5000	0.00376774
565.0000	0.00377838
564.5000	0.00378241
564.0000	0.00378319
563.5000	0.00378542
563.0000	0.00381835
562.5000	0.00384466
562.0000	0.0038843
561.5000	0.00389656
561.0000	0.0038974
560.5000	0.0039143
560.0000	0.00392451
559.5000	0.00396514
559.0000	0.00398191
558.5000	0.00400008
558.0000	0.00395909
557.5000	0.00394328
557.0000	0.00393917
556.5000	0.00397694
556.0000	0.00401291
555.5000	0.00403085
555.0000	0.00402978
554.5000	0.00404923
554.0000	0.00406326
553.5000	0.004093
553.0000	0.00409657
552.5000	0.00410108
552.0000	0.00406438
551.5000	0.00409012
551.0000	0.00410828
550.5000	0.00416356
550.0000	0.00417744
549.5000	0.00418613
549.0000	0.00420309
548.5000	0.00418608
548.0000	0.00421022
547.5000	0.0042068
547.0000	0.00420564
546.5000	0.00417783
546.0000	0.00415234
545.5000	0.00414409
545.0000	0.00414922
544.5000	0.00418311
544.0000	0.00422958
543.5000	0.00424673
543.0000	0.00423385
542.5000	0.00421369
542.0000	0.0042246
541.5000	0.00425101
541.0000	0.00428471
540.5000	0.0043142
540.0000	0.00431467
539.5000	0.00433319
539.0000	0.00436367
538.5000	0.00438696
538.0000	0.00439608
537.5000	0.0043728
537.0000	0.0043768
536.5000	0.00440124
536.0000	0.00443236
535.5000	0.00445199
535.0000	0.00446455
534.5000	0.00449086
534.0000	0.0045255
533.5000	0.00454594
533.0000	0.00454334
532.5000	0.00454372
532.0000	0.0045613
531.5000	0.00455941
531.0000	0.0045733
530.5000	0.00458361
530.0000	0.00461105
529.5000	0.0046466
529.0000	0.00469283
528.5000	0.00470432
528.0000	0.00470406
527.5000	0.00468271
527.0000	0.00469432
526.5000	0.00471399
526.0000	0.00474091
525.5000	0.00475529
525.0000	0.00477569
524.5000	0.00479871
524.0000	0.00480518
523.5000	0.00482009
523.0000	0.00483751
522.5000	0.00485876
522.0000	0.00489273
521.5000	0.00488428
521.0000	0.00487548
520.5000	0.00484647
520.0000	0.00487878
519.5000	0.00489577
519.0000	0.00489346
518.5000	0.00490371
518.0000	0.00488773
517.5000	0.00488802
517.0000	0.00490624
516.5000	0.00493837
516.0000	0.00498204
515.5000	0.00500393
515.0000	0.00497151
514.5000	0.00496607
514.0000	0.00496104
513.5000	0.00501762
513.0000	0.00505608
512.5000	0.00512761
512.0000	0.00512996
511.5000	0.00512739
511.0000	0.00513351
510.5000	0.00513066
510.0000	0.00513208
509.5000	0.00515917
509.0000	0.00517692
508.5000	0.00518287
508.0000	0.00515487
507.5000	0.00514107
507.0000	0.00514753
506.5000	0.00516732
506.0000	0.00522054
505.5000	0.0052279
505.0000	0.00524665
504.5000	0.00521966
504.0000	0.00517262
503.5000	0.0051755
503.0000	0.00518508
502.5000	0.00525442
502.0000	0.00529833
501.5000	0.00531968
501.0000	0.00530148
500.5000	0.0052939
500.0000	0.00530702
499.5000	0.00532027
499.0000	0.00534579
498.5000	0.00533225
498.0000	0.00535068
497.5000	0.00535641
497.0000	0.00539579
496.5000	0.0054284
496.0000	0.00546948
495.5000	0.00548276
495.0000	0.00548459
494.5000	0.00548427
494.0000	0.00548155
493.5000	0.00549669
493.0000	0.00550289
492.5000	0.0055577
492.0000	0.00559933
491.5000	0.0056127
491.0000	0.00560126
490.5000	0.00561087
490.0000	0.00561708
489.5000	0.00565112
489.0000	0.00567375
488.5000	0.00567449
488.0000	0.00569908
487.5000	0.00571039
487.0000	0.00574674
486.5000	0.00576721
486.0000	0.0057787
485.5000	0.00580067
485.0000	0.00580053
484.5000	0.0058001
484.0000	0.00579412
483.5000	0.00583033
483.0000	0.00586089
482.5000	0.00591848
482.0000	0.00596848
481.5000	0.0059882
481.0000	0.0059873
480.5000	0.00598544
480.0000	0.00598795
479.5000	0.00600097
479.0000	0.00600755
478.5000	0.00600974
478.0000	0.00603476
477.5000	0.00608732
477.0000	0.00608255
476.5000	0.00607433
476.0000	0.00606176
475.5000	0.00612215
475.0000	0.00616103
474.5000	0.00619278
474.0000	0.00621602
473.5000	0.00623662
473.0000	0.00625636
472.5000	0.00627938
472.0000	0.00630985
471.5000	0.00632376
471.0000	0.00634291
470.5000	0.00633835
470.0000	0.00633427
469.5000	0.00636528
469.0000	0.00637556
468.5000	0.00645371
468.0000	0.00652396
467.5000	0.00656715
467.0000	0.00659072
466.5000	0.00657275
466.0000	0.00659127
465.5000	0.00660079
465.0000	0.00661495
464.5000	0.00663673
464.0000	0.00666751
463.5000	0.00666373
463.0000	0.0066389
462.5000	0.00664336
462.0000	0.00670014
461.5000	0.0067683
461.0000	0.00684198
460.5000	0.0068631
460.0000	0.00685588
459.5000	0.00686358
459.0000	0.00689319
458.5000	0.00693055
458.0000	0.00694519
457.5000	0.00696122
457.0000	0.0070071
456.5000	0.007014
456.0000	0.00700282
455.5000	0.00699999
455.0000	0.00698135
454.5000	0.00698436
454.0000	0.00696343
453.5000	0.00693312
453.0000	0.00692181
452.5000	0.00691405
452.0000	0.00691516
451.5000	0.0069388
451.0000	0.0069427
450.5000	0.00694858
450.0000	0.00693139
449.5000	0.00691695
449.0000	0.00695333
448.5000	0.00700162
448.0000	0.00702442
447.5000	0.00705892
447.0000	0.00707015
446.5000	0.00711717
446.0000	0.00714824
445.5000	0.00720222
445.0000	0.00726533
444.5000	0.00727377
444.0000	0.00730253
443.5000	0.00734564
443.0000	0.00739123
442.5000	0.00743195
442.0000	0.00747372
441.5000	0.00752039
441.0000	0.00759154
440.5000	0.00764169
440.0000	0.0077206
439.5000	0.00771013
439.0000	0.00769111
438.5000	0.00766738
438.0000	0.00766288
437.5000	0.00772838
437.0000	0.00780935
436.5000	0.00781887
436.0000	0.00782677
435.5000	0.00785412
435.0000	0.0079158
434.5000	0.00797446
434.0000	0.00796282
433.5000	0.00801172
433.0000	0.00803718
432.5000	0.0080642
432.0000	0.00806953
431.5000	0.0080729
431.0000	0.00810951
430.5000	0.00813486
430.0000	0.00818588
429.5000	0.0082278
429.0000	0.00828224
428.5000	0.00831647
428.0000	0.00831304
427.5000	0.00834121
427.0000	0.00836793
426.5000	0.00837565
426.0000	0.00843701
425.5000	0.00842863
425.0000	0.008465
424.5000	0.00848671
424.0000	0.00856317
423.5000	0.00858844
423.0000	0.00859705
422.5000	0.00857012
422.0000	0.00857673
421.5000	0.00863168
421.0000	0.0087296
420.5000	0.0088452
420.0000	0.00889594
419.5000	0.0089149
419.0000	0.00896045
418.5000	0.00897807
418.0000	0.00901484
417.5000	0.00897471
417.0000	0.00899762
416.5000	0.00902125
416.0000	0.00904501
415.5000	0.00902254
415.0000	0.00905036
414.5000	0.00912439
414.0000	0.00920034
413.5000	0.00926077
413.0000	0.00931902
412.5000	0.00931252
412.0000	0.00931287
411.5000	0.00926978
411.0000	0.00926354
410.5000	0.00924377
410.0000	0.00927556
409.5000	0.00932443
409.0000	0.00932265
408.5000	0.0093124
408.0000	0.00930712
407.5000	0.00931958
407.0000	0.0092805
406.5000	0.00930499
406.0000	0.00932016
405.5000	0.00935227
405.0000	0.00930483
404.5000	0.00929366
404.0000	0.00931219
403.5000	0.00938039
403.0000	0.00937632
402.5000	0.00935702
402.0000	0.00932698
401.5000	0.0093912
401.0000	0.00955922
400.5000	0.00959112
400.0000	0.00991058
399.5000	0.0100109
399.0000	0.0100896
398.5000	0.0101751
398.0000	0.010284
397.5000	0.0105127
397.0000	0.0108149
396.5000	0.0110496
396.0000	0.0113289
395.5000	0.0115069
395.0000	0.0117582
394.5000	0.0120923
394.0000	0.0123896
393.5000	0.0127642
393.0000	0.0129847
392.5000	0.0132754
392.0000	0.0135257
391.5000	0.013768
391.0000	0.013964
390.5000	0.014151
390.0000	0.0143317
389.5000	0.0145413
389.0000	0.0146747
388.5000	0.0147893
388.0000	0.0148548
387.5000	0.0149832
387.0000	0.0150302
386.5000	0.0149787
386.0000	0.0150534
385.5000	0.0150856
385.0000	0.0151829
384.5000	0.0151903
384.0000	0.0152138
383.5000	0.0152572
383.0000	0.015208
382.5000	0.0151472
382.0000	0.0150352
381.5000	0.0150059
381.0000	0.0149895
380.5000	0.015079
380.0000	0.0151336
379.5000	0.0151288
379.0000	0.0150254
378.5000	0.0149874
378.0000	0.0150449
377.5000	0.0150777
377.0000	0.015041
376.5000	0.0149816
376.0000	0.0150316
375.5000	0.0150489
375.0000	0.0151452
374.5000	0.0153335
374.0000	0.0153994
373.5000	0.0154361
373.0000	0.0153935
372.5000	0.0154883
372.0000	0.0155888
371.5000	0.0154965
371.0000	0.0155984
370.5000	0.0157006
370.0000	0.0161317
369.5000	0.0161635
369.0000	0.0163158
368.5000	0.0163827
368.0000	0.0164719
367.5000	0.0164733
367.0000	0.0165047
366.5000	0.0166523
366.0000	0.0166041
365.5000	0.01658
365.0000	0.0166084
364.5000	0.0167346
364.0000	0.0167752
363.5000	0.0168342
363.0000	0.0169503
362.5000	0.017057
362.0000	0.0171664
361.5000	0.0173296
361.0000	0.0175467
360.5000	0.0177506
360.0000	0.01766
359.5000	0.0177057
359.0000	0.0176154
358.5000	0.0176559
358.0000	0.0176537
357.5000	0.0176404
357.0000	0.0176086
356.5000	0.0178637
356.0000	0.0179957
355.5000	0.0180542
355.0000	0.0181071
354.5000	0.0183352
354.0000	0.0184775
353.5000	0.0185538
353.0000	0.0185732
352.5000	0.0186127
352.0000	0.0187517
351.5000	0.0187661
351.0000	0.0187866
350.5000	0.018896
350.0000	0.018888
349.5000	0.0189577
349.0000	0.0190608
348.5000	0.0190519
348.0000	0.0191496
347.5000	0.0190048
347.0000	0.0190596
346.5000	0.0190203
346.0000	0.0192591
345.5000	0.0195045
345.0000	0.0197349
344.5000	0.0197024
344.0000	0.0197804
343.5000	0.0194214
343.0000	0.0195658
342.5000	0.0193
342.0000	0.0195533
341.5000	0.0196388
341.0000	0.0198863
340.5000	0.0197154
340.0000	0.0206735
339.5000	0.0205183
339.0000	0.0206049
338.5000	0.0209246
338.0000	0.0213967
337.5000	0.0214675
337.0000	0.0213324
336.5000	0.021131
336.0000	0.021049
335.5000	0.0211972
335.0000	0.0212913
334.5000	0.0214403
334.0000	0.0215423
333.5000	0.0215866
333.0000	0.0217132
332.5000	0.0216821
332.0000	0.0216911
331.5000	0.0218856
331.0000	0.0223609
330.5000	0.0221796
330.0000	0.0221979
329.5000	0.0221972
329.0000	0.0224946
328.5000	0.0228661
328.0000	0.0228871
327.5000	0.0229115
327.0000	0.023055
326.5000	0.0232275
326.0000	0.0231664
325.5000	0.0234287
325.0000	0.0234444
324.5000	0.023206
324.0000	0.0233458
323.5000	0.0235515
323.0000	0.0237917
322.5000	0.023873
322.0000	0.0239755
321.5000	0.0241975
321.0000	0.0241354
320.5000	0.0244737
320.0000	0.0249243
319.5000	0.0252114
319.0000	0.0253689
318.5000	0.0257385
318.0000	0.0255364
317.5000	0.0257844
317.0000	0.0256068
316.5000	0.0261197
316.0000	0.0264843
315.5000	0.0271219
315.0000	0.0271624
314.5000	0.027608
314.0000	0.0278144
313.5000	0.0278885
313.0000	0.0280638
312.5000	0.0282794
312.0000	0.028899
311.5000	0.0293765
311.0000	0.0296087
310.5000	0.0299587
310.0000	0.0301965
309.5000	0.0310958
309.0000	0.0318409
308.5000	0.0326653
308.0000	0.0332746
307.5000	0.0342076
307.0000	0.0351603
306.5000	0.0365483
306.0000	0.0375901
305.5000	0.038818
305.0000	0.0402182
304.5000	0.0420243
304.0000	0.0439771
303.5000	0.0460783
303.0000	0.0481826
302.5000	0.0505517
302.0000	0.0531342
301.5000	0.0563156
301.0000	0.0594136
300.5000	0.0628933
300.0000	0.0668714
299.5000	0.0712808
299.0000	0.0758382
298.5000	0.0809413
298.0000	0.0863355
297.5000	0.0923883
297.0000	0.0990454
296.5000	0.10634
296.0000	0.114454
295.5000	0.123393
295.0000	0.133387
294.5000	0.144661
294.0000	0.157493
293.5000	0.171736
293.0000	0.187437
292.5000	0.204165
292.0000	0.22202
291.5000	0.240354
291.0000	0.259037
290.5000	0.277726
290.0000	0.296751
289.5000	0.316592
289.0000	0.337109
288.5000	0.358638
288.0000	0.381342
287.5000	0.405096
287.0000	0.429674
286.5000	0.453875
286.0000	0.47669
285.5000	0.497597
285.0000	0.516113
284.5000	0.531571
284.0000	0.544489
283.5000	0.554841
283.0000	0.56336
282.5000	0.570434
282.0000	0.576818
281.5000	0.582775
281.0000	0.588638
280.5000	0.594516
280.0000	0.600376
279.5000	0.605964
279.0000	0.610929
278.5000	0.614648
278.0000	0.616955
277.5000	0.61801
277.0000	0.617562
276.5000	0.615858
276.0000	0.61287
275.5000	0.609279
275.0000	0.604916
274.5000	0.599746
274.0000	0.594208
273.5000	0.588672
273.0000	0.58321
272.5000	0.578357
272.0000	0.574845
271.5000	0.573325
271.0000	0.574664
270.5000	0.579499
270.0000	0.589117
269.5000	0.602593
269.0000	0.616796
268.5000	0.626956
268.0000	0.627889
267.5000	0.6176
267.0000	0.598913
266.5000	0.578502
266.0000	0.562569
265.5000	0.553544
265.0000	0.549671
264.5000	0.547953
264.0000	0.546016
263.5000	0.544197
263.0000	0.543904
262.5000	0.545894
262.0000	0.548896
261.5000	0.549865
261.0000	0.54642
260.5000	0.538885
260.0000	0.52904
259.5000	0.519129
259.0000	0.509577
258.5000	0.500042
258.0000	0.489849
257.5000	0.479205
257.0000	0.469056
256.5000	0.460232
256.0000	0.453525
255.5000	0.44832
255.0000	0.443948
254.5000	0.439914
254.0000	0.43586
253.5000	0.431629
253.0000	0.4268
252.5000	0.421134
252.0000	0.414832
251.5000	0.408829
251.0000	0.403683
250.5000	0.400313
250.0000	0.399265

##### Extended Information
[Comment]
Sample Name	BSA_c1_g1_83mMYCl3_rep2
Comment	83mMYCl3
User	FZ
Division	TOF
Company	ILL

[Data Information]
Creation Date	28/03/2010 12:28
Data array type	Linear data array
Horizontal	Wavelength [nm]
Vertical	Abs
Start	800 nm
End	250 nm
Data pitch	0.5 nm
Data points	1101    

[Measurement Information]
Instrument Name	UV/Vis
Model Name	V-630
Serial No.	A062261148

Accessory	HMC-711
Accessory S/N	B001961107
  Cell Length	10 mm
  Temperature	25.00 C

Photometric Mode	Abs
Measurement range	800 - 250 nm
Data pitch	0.5 nm
Band width(UV/Vis)	1.5 nm
Response	Fast
Scanning speed	400 nm/min
Source Change	340 nm
Light Source	D2/WI
Filter Exchange	Step
Correction	Baseline

