ALV-7004 or ALV-7004/FAST Data
Date :	"3/28/2010"
Time :	"12:39:14 PM"
Samplename : 	"BSA 15 g/l in 8.3 mM YCl3"
SampMemo(0) : 	""
SampMemo(1) : 	""
SampMemo(2) : 	""
SampMemo(3) : 	""
SampMemo(4) : 	""
SampMemo(5) : 	""
SampMemo(6) : 	""
SampMemo(7) : 	""
SampMemo(8) : 	""
SampMemo(9) : 	""
Temperature [K] :	     295.66026
Viscosity [cp]  :	       0.94324
Refractive Index:	       1.33200
Wavelength [nm] :	     632.80000
Angle [°]       :	     150.00000
Duration [s]    :	        60
Runs            :	         1
Mode            :	"C-CH0/1+1/0"
MeanCR0 [kHz]   :	     196.62536
MeanCR1 [kHz]   :	     242.71150
MeanCR2 [kHz]   :	       0.00000
MeanCR3 [kHz]   :	       0.00000

"Correlation"
  3.12500E-006	  1.00898E+000	  1.00182E+000	 -3.00000E+000	 -3.00000E+000
  6.25000E-006	  9.83686E-001	  9.35035E-001	 -3.00000E+000	 -3.00000E+000
  9.37500E-006	  1.00735E+000	  1.03669E+000	 -3.00000E+000	 -3.00000E+000
  1.25000E-005	  1.00706E+000	  9.93769E-001	 -3.00000E+000	 -3.00000E+000
  1.56250E-005	  1.04085E+000	  1.05216E+000	 -3.00000E+000	 -3.00000E+000
  1.87500E-005	  1.06474E+000	  1.06657E+000	 -3.00000E+000	 -3.00000E+000
  2.18750E-005	  1.01300E+000	  1.03604E+000	 -3.00000E+000	 -3.00000E+000
  2.50000E-005	  1.01622E+000	  1.00593E+000	 -3.00000E+000	 -3.00000E+000
  2.81250E-005	  9.94008E-001	  9.97375E-001	 -3.00000E+000	 -3.00000E+000
  3.12500E-005	  9.89152E-001	  9.72523E-001	 -3.00000E+000	 -3.00000E+000
  3.43750E-005	  9.96462E-001	  9.97349E-001	 -3.00000E+000	 -3.00000E+000
  3.75000E-005	  1.00516E+000	  9.85045E-001	 -3.00000E+000	 -3.00000E+000
  4.06250E-005	  1.01924E+000	  1.03934E+000	 -3.00000E+000	  1.39699E+000
  4.37500E-005	  1.02501E+000	  1.01825E+000	 -3.00000E+000	  1.67798E+000
  4.68750E-005	  1.06854E+000	  1.02474E+000	 -3.00000E+000	 -8.66864E-001
  5.00000E-005	  1.04584E+000	  1.03624E+000	 -3.00000E+000	  2.81817E+000
  5.62500E-005	  1.00392E+000	  9.98910E-001	 -3.00000E+000	  1.40725E+000
  6.25000E-005	  1.01733E+000	  9.91433E-001	 -3.00000E+000	  1.43630E+000
  6.87500E-005	  1.03113E+000	  1.05449E+000	 -2.90217E+000	  1.61903E+000
  7.50000E-005	  1.03305E+000	  1.02428E+000	  2.58428E+000	  1.11387E+000
  8.12500E-005	  1.02660E+000	  9.94164E-001	  1.33114E+000	  1.18462E+000
  8.75000E-005	  1.01340E+000	  1.00471E+000	  1.36559E+000	  1.16102E+000
  9.37500E-005	  1.01286E+000	  1.03262E+000	  1.31711E+000	  1.14100E+000
  1.00000E-004	  1.00707E+000	  1.02998E+000	  1.17549E+000	  1.10828E+000
  1.12500E-004	  1.02507E+000	  1.02234E+000	  1.17126E+000	  1.10565E+000
  1.25000E-004	  9.93921E-001	  1.00042E+000	  1.08836E+000	  1.10157E+000
  1.37500E-004	  1.01094E+000	  1.00600E+000	  1.04198E+000	  1.08403E+000
  1.50000E-004	  9.94848E-001	  1.00005E+000	  1.03110E+000	  1.07704E+000
  1.62500E-004	  1.00811E+000	  1.01171E+000	  1.00296E+000	  1.07607E+000
  1.75000E-004	  1.01713E+000	  1.01785E+000	  1.00469E+000	  1.06239E+000
  1.87500E-004	  9.92343E-001	  9.97566E-001	  1.00808E+000	  1.07129E+000
  2.00000E-004	  9.96637E-001	  9.91275E-001	  1.00206E+000	  1.06819E+000
  2.25000E-004	  1.01330E+000	  1.00585E+000	  1.00545E+000	  1.05996E+000
  2.50000E-004	  1.01267E+000	  1.01447E+000	  9.99034E-001	  1.04242E+000
  2.75000E-004	  1.01096E+000	  1.00282E+000	  9.86060E-001	  1.03920E+000
  3.00000E-004	  1.00310E+000	  1.00449E+000	  1.01158E+000	  1.04948E+000
  3.25000E-004	  9.93657E-001	  9.94114E-001	  1.00322E+000	  1.02705E+000
  3.50000E-004	  9.98340E-001	  1.00194E+000	  1.00487E+000	  1.02732E+000
  3.75000E-004	  1.00175E+000	  1.00394E+000	  9.86815E-001	  1.03907E+000
  4.00000E-004	  9.96069E-001	  9.94848E-001	  1.00490E+000	  1.02753E+000
  4.50000E-004	  9.95507E-001	  9.97249E-001	  1.00795E+000	  1.02455E+000
  5.00000E-004	  9.92938E-001	  9.89545E-001	  9.92682E-001	  1.01987E+000
  5.50000E-004	  9.95635E-001	  9.95017E-001	  1.00258E+000	  1.01741E+000
  6.00000E-004	  9.81742E-001	  9.78480E-001	  9.90749E-001	  1.00702E+000
  6.50000E-004	  9.84199E-001	  9.88706E-001	  9.98191E-001	  1.00942E+000
  7.00000E-004	  9.72526E-001	  9.64920E-001	  9.89239E-001	  1.00631E+000
  7.50000E-004	  9.76375E-001	  9.72287E-001	  9.81650E-001	  1.00718E+000
  8.00000E-004	  9.75635E-001	  9.75355E-001	  9.82323E-001	  1.00247E+000
  9.00000E-004	  9.67330E-001	  9.68830E-001	  9.79436E-001	  9.93834E-001
  1.00000E-003	  9.62780E-001	  9.63395E-001	  9.69324E-001	  9.86306E-001
  1.10000E-003	  9.58024E-001	  9.62421E-001	  9.63981E-001	  9.79999E-001
  1.20000E-003	  9.51293E-001	  9.49176E-001	  9.64606E-001	  9.81899E-001
  1.30000E-003	  9.45862E-001	  9.45107E-001	  9.52645E-001	  9.74106E-001
  1.40000E-003	  9.42432E-001	  9.44252E-001	  9.42010E-001	  9.58927E-001
  1.50000E-003	  9.35378E-001	  9.35448E-001	  9.38668E-001	  9.59312E-001
  1.60000E-003	  9.29754E-001	  9.30700E-001	  9.28705E-001	  9.53257E-001
  1.80000E-003	  9.18947E-001	  9.21868E-001	  9.24608E-001	  9.42694E-001
  2.00000E-003	  9.09012E-001	  9.08397E-001	  9.15078E-001	  9.30078E-001
  2.20000E-003	  9.00504E-001	  8.97949E-001	  9.01224E-001	  9.19474E-001
  2.40000E-003	  8.86757E-001	  8.86569E-001	  8.97703E-001	  9.06239E-001
  2.60000E-003	  8.78384E-001	  8.78834E-001	  8.86867E-001	  8.96419E-001
  2.80000E-003	  8.69154E-001	  8.69672E-001	  8.79669E-001	  8.86914E-001
  3.00000E-003	  8.59000E-001	  8.60791E-001	  8.67169E-001	  8.76278E-001
  3.20000E-003	  8.49434E-001	  8.50916E-001	  8.61370E-001	  8.67096E-001
  3.60000E-003	  8.31609E-001	  8.30020E-001	  8.42971E-001	  8.47683E-001
  4.00000E-003	  8.14334E-001	  8.13996E-001	  8.23714E-001	  8.28336E-001
  4.40000E-003	  7.95790E-001	  7.96809E-001	  8.03841E-001	  8.09772E-001
  4.80000E-003	  7.76531E-001	  7.76320E-001	  7.86534E-001	  7.90790E-001
  5.20000E-003	  7.58725E-001	  7.56707E-001	  7.68121E-001	  7.76379E-001
  5.60000E-003	  7.39318E-001	  7.37637E-001	  7.52866E-001	  7.56896E-001
  6.00000E-003	  7.23540E-001	  7.21842E-001	  7.35882E-001	  7.43474E-001
  6.40000E-003	  7.08843E-001	  7.06385E-001	  7.21818E-001	  7.25156E-001
  7.20000E-003	  6.79615E-001	  6.78933E-001	  6.88450E-001	  6.93057E-001
  8.00000E-003	  6.50316E-001	  6.49920E-001	  6.60904E-001	  6.62865E-001
  8.80000E-003	  6.22865E-001	  6.21916E-001	  6.30161E-001	  6.33206E-001
  9.60000E-003	  5.93652E-001	  5.93107E-001	  6.03198E-001	  6.07291E-001
  1.04000E-002	  5.68867E-001	  5.67501E-001	  5.76878E-001	  5.79864E-001
  1.12000E-002	  5.43519E-001	  5.42163E-001	  5.52227E-001	  5.54986E-001
  1.20000E-002	  5.21399E-001	  5.20940E-001	  5.30545E-001	  5.31560E-001
  1.28000E-002	  4.98994E-001	  4.98991E-001	  5.05551E-001	  5.08720E-001
  1.44000E-002	  4.57169E-001	  4.56155E-001	  4.63281E-001	  4.65426E-001
  1.60000E-002	  4.18734E-001	  4.19128E-001	  4.25645E-001	  4.25510E-001
  1.76000E-002	  3.84107E-001	  3.82747E-001	  3.89106E-001	  3.91156E-001
  1.92000E-002	  3.50776E-001	  3.50719E-001	  3.58997E-001	  3.58793E-001
  2.08000E-002	  3.23015E-001	  3.22195E-001	  3.27831E-001	  3.28679E-001
  2.24000E-002	  2.95218E-001	  2.93935E-001	  3.01899E-001	  3.01008E-001
  2.40000E-002	  2.71370E-001	  2.70932E-001	  2.75365E-001	  2.76643E-001
  2.56000E-002	  2.48977E-001	  2.48102E-001	  2.51583E-001	  2.54752E-001
  2.88000E-002	  2.10003E-001	  2.08912E-001	  2.11503E-001	  2.14703E-001
  3.20000E-002	  1.76642E-001	  1.76241E-001	  1.80101E-001	  1.80920E-001
  3.52000E-002	  1.49168E-001	  1.48122E-001	  1.51142E-001	  1.53503E-001
  3.84000E-002	  1.26593E-001	  1.25345E-001	  1.28371E-001	  1.29487E-001
  4.16000E-002	  1.06054E-001	  1.05653E-001	  1.08473E-001	  1.09307E-001
  4.48000E-002	  8.96093E-002	  9.02622E-002	  9.07936E-002	  9.21913E-002
  4.80000E-002	  7.67321E-002	  7.68484E-002	  7.66239E-002	  7.83128E-002
  5.12000E-002	  6.49282E-002	  6.48019E-002	  6.51110E-002	  6.72030E-002
  5.76000E-002	  4.70728E-002	  4.76123E-002	  4.77679E-002	  4.85608E-002
  6.40000E-002	  3.38280E-002	  3.39574E-002	  3.35518E-002	  3.51581E-002
  7.04000E-002	  2.41695E-002	  2.40178E-002	  2.42136E-002	  2.49623E-002
  7.68000E-002	  1.81387E-002	  1.82312E-002	  1.73793E-002	  1.82915E-002
  8.32000E-002	  1.29542E-002	  1.33292E-002	  1.34313E-002	  1.37106E-002
  8.96000E-002	  9.18306E-003	  9.12341E-003	  8.86276E-003	  1.02975E-002
  9.60000E-002	  7.03496E-003	  7.03758E-003	  7.72612E-003	  7.37010E-003
  1.02400E-001	  5.27772E-003	  5.65632E-003	  5.02158E-003	  5.51303E-003
  1.15200E-001	  2.75359E-003	  2.50685E-003	  2.49914E-003	  3.17716E-003
  1.28000E-001	  1.43967E-003	  1.80268E-003	  9.63798E-004	  1.84592E-003
  1.40800E-001	  3.14739E-004	  4.42668E-004	 -4.43827E-005	  2.44755E-004
  1.53600E-001	  3.45112E-004	  4.81944E-004	  1.52577E-004	 -6.93064E-005
  1.66400E-001	  4.31749E-004	  5.99170E-004	  7.07504E-004	 -2.84405E-005
  1.79200E-001	  9.43033E-004	  1.11759E-003	 -1.82063E-004	  6.07704E-004
  1.92000E-001	  5.28124E-005	  5.92740E-004	  2.41915E-004	  7.05821E-005
  2.04800E-001	  1.15590E-004	  1.27648E-004	 -6.27003E-005	  5.66606E-005
  2.30400E-001	  3.38419E-004	  2.82036E-004	  2.83384E-004	  5.66581E-004
  2.56000E-001	  5.64572E-004	  2.32505E-004	  5.13288E-004	  9.43348E-004
  2.81600E-001	  2.72536E-005	 -4.13067E-004	  6.09450E-004	  7.27387E-004
  3.07200E-001	  6.01383E-005	  5.94704E-005	  3.67178E-004	  4.28216E-004
  3.32800E-001	 -6.33950E-004	 -8.30571E-004	  5.95838E-006	 -4.43273E-004
  3.58400E-001	  1.58967E-004	 -2.47552E-004	  3.27640E-004	 -2.67439E-004
  3.84000E-001	  6.57027E-005	 -1.58728E-004	  3.74612E-004	 -2.59144E-004
  4.09600E-001	 -1.98470E-005	 -6.59495E-005	  2.30774E-004	 -4.48083E-004
  4.60800E-001	  2.80070E-004	  1.32482E-005	  7.04226E-004	  1.15843E-005
  5.12000E-001	 -1.80307E-004	 -2.47742E-004	 -2.43723E-004	 -3.73990E-004
  5.63200E-001	  5.56236E-004	  5.69705E-004	  3.49254E-004	  2.34290E-004
  6.14400E-001	  1.35140E-004	  1.73698E-004	  1.86674E-004	  2.69660E-005
  6.65600E-001	  4.53718E-004	  7.84711E-004	  4.42739E-004	  5.68231E-004
  7.16800E-001	 -2.27401E-004	 -6.25316E-005	  5.61804E-005	 -3.09177E-004
  7.68000E-001	 -3.08052E-004	 -2.67853E-004	 -3.66740E-004	 -5.30881E-004
  8.19200E-001	 -1.46867E-004	 -2.19307E-004	 -2.49340E-004	 -1.22299E-004
  9.21600E-001	  8.20565E-006	 -2.27765E-004	 -1.46955E-004	 -6.89615E-005
  1.02400E+000	 -3.42276E-004	 -2.46571E-004	 -3.79999E-004	 -5.74633E-004
  1.12640E+000	  1.74300E-004	  3.02580E-004	  8.09447E-005	  1.88758E-004
  1.22880E+000	  1.94878E-004	 -2.11684E-004	 -1.60646E-005	 -1.33441E-004
  1.33120E+000	  1.01176E-005	 -1.98308E-005	 -2.39840E-004	  3.06668E-004
  1.43360E+000	 -3.32741E-004	 -4.15517E-004	 -1.40147E-004	 -3.90803E-004
  1.53600E+000	  2.51528E-004	  4.31908E-004	  2.33109E-004	  4.71156E-005
  1.63840E+000	  8.36052E-005	  7.48398E-006	  1.77784E-004	  1.52046E-004
  1.84320E+000	 -3.18941E-004	 -3.79572E-004	  1.15537E-005	 -4.27505E-004
  2.04800E+000	  1.45284E-004	  2.99382E-004	  4.14938E-005	  9.21706E-005
  2.25280E+000	  2.05443E-005	 -2.09167E-004	  8.39434E-005	 -6.06735E-005
  2.45760E+000	 -1.35141E-005	  1.07501E-004	  8.99216E-005	 -7.57342E-005
  2.66240E+000	 -5.71105E-005	 -6.50211E-006	 -7.21667E-005	 -1.79614E-006
  2.86720E+000	  2.09681E-004	  3.49465E-004	  2.06261E-004	  1.17394E-004
  3.07200E+000	 -2.37585E-005	  2.24461E-004	 -5.50222E-005	  6.14240E-007
  3.27680E+000	 -1.72394E-004	 -1.68857E-004	 -2.83584E-004	 -1.71145E-004
  3.68640E+000	 -1.66175E-004	  2.94859E-005	 -2.00632E-004	 -2.02705E-004
  4.09600E+000	 -8.90860E-005	 -8.94876E-005	  1.15382E-005	 -1.82340E-005
  4.50560E+000	 -1.91016E-005	 -1.27377E-004	 -5.39815E-005	  8.18660E-005
  4.91520E+000	 -2.36156E-004	 -2.96716E-004	 -3.60512E-004	 -2.49395E-004
  5.32480E+000	  2.22623E-005	 -4.21895E-005	 -8.99871E-005	  3.26803E-005
  5.73440E+000	  2.32415E-004	  3.62406E-004	  1.17903E-004	  2.05742E-004
  6.14400E+000	  2.44944E-004	  2.94533E-004	  1.03437E-004	  3.20565E-004
  6.55360E+000	  1.83291E-004	  1.32687E-004	  9.17878E-005	  2.62957E-004
  7.37280E+000	 -1.76413E-004	 -1.70657E-004	 -1.74151E-004	 -1.14610E-004
  8.19200E+000	 -1.22077E-004	 -1.92921E-004	 -1.22558E-004	 -1.47931E-004
  9.01120E+000	  2.45435E-004	  2.38225E-004	  1.58371E-004	  2.72325E-004
  9.83040E+000	  1.29707E-004	  1.85317E-004	  1.30972E-004	  1.39930E-004
  1.06496E+001	 -2.11139E-004	 -2.97062E-004	 -1.33620E-004	 -3.01075E-004
  1.14688E+001	  2.44480E-005	  7.00340E-005	 -1.65388E-005	  6.98868E-005
  1.22880E+001	 -7.84087E-005	 -5.12075E-005	  3.20715E-005	 -1.30161E-004
  1.31072E+001	  6.06357E-005	  1.57383E-006	  1.33767E-004	 -2.14957E-005
  1.47456E+001	 -1.00298E-005	  1.33494E-005	  4.96842E-006	 -7.25522E-005
  1.63840E+001	 -1.46042E-005	 -2.96471E-005	  3.89773E-005	 -1.51067E-004
  1.80224E+001	 -1.60566E-004	 -7.63540E-005	 -1.09565E-004	 -9.69599E-005
  1.96608E+001	  4.65335E-005	  6.31863E-005	  2.58971E-005	 -4.48262E-005
  2.12992E+001	  2.15713E-004	  1.79651E-004	  2.61257E-004	  1.51328E-004
  2.29376E+001	  5.44383E-005	  1.57499E-004	  8.08109E-005	  1.22409E-004
  2.45760E+001	  1.48225E-004	  2.05136E-004	  8.77269E-005	  1.49008E-004
  2.62144E+001	  2.55178E-005	  2.45212E-005	  5.24339E-005	 -2.16604E-005
  2.94912E+001	  2.64249E-005	  1.78540E-005	  2.51637E-005	 -8.71925E-006
  3.27680E+001	  8.87595E-006	  2.35518E-005	  1.52899E-005	 -8.23203E-006
  3.60448E+001	 -7.39836E-005	 -8.99825E-005	 -8.73185E-005	 -5.14430E-005
  3.93216E+001	  4.68953E-005	  6.30886E-005	  7.69942E-005	  2.36734E-005
  4.25984E+001	  2.81687E-005	  6.40601E-005	 -2.79414E-005	  5.27267E-005
  4.58752E+001	  4.33681E-005	  5.98419E-005	  6.33379E-005	  5.77330E-006
  4.91520E+001	 -6.37795E-005	 -8.87098E-005	 -1.49835E-004	  1.14087E-006
  5.24288E+001	 -4.68706E-006	  4.19695E-006	 -7.28942E-005	  4.16629E-005
  5.89824E+001	  5.77889E-006	  3.23001E-005	 -2.21434E-005	  2.49663E-005
  6.55360E+001	  3.40197E-006	  4.14317E-005	  1.77279E-005	 -9.91736E-006
  7.20896E+001	  6.94275E-005	  6.48296E-005	  8.86264E-005	  3.72546E-005
  7.86432E+001	 -1.80202E-005	 -2.90476E-006	  3.64416E-005	 -7.53378E-005
  8.51968E+001	  1.01106E-005	  1.54323E-005	  2.03303E-005	  1.50341E-005
  9.17504E+001	  1.61737E-005	  5.28528E-005	  5.07305E-005	 -1.14476E-005
  9.83040E+001	 -5.95917E-006	  3.09003E-005	  2.63442E-005	 -6.60487E-005
  1.04858E+002	  3.42434E-005	  4.39573E-005	  5.47168E-005	  3.68839E-006
  1.17965E+002	  1.86283E-005	  4.21339E-005	 -1.70441E-005	  4.36980E-005
  1.31072E+002	  9.23922E-007	  1.71805E-006	  5.26291E-006	 -2.89579E-005
  1.44179E+002	  9.87765E-006	  3.80550E-006	  6.82030E-009	  1.94105E-005
  1.57286E+002	 -5.67703E-006	 -2.12522E-005	 -1.86019E-007	 -2.07198E-005
  1.70394E+002	  3.24272E-005	  1.48216E-005	  4.04486E-005	 -5.03030E-006
  1.83501E+002	  5.58522E-005	  4.92142E-005	  7.52813E-005	  2.32019E-005
  1.96608E+002	 -7.24654E-007	 -1.47571E-005	 -1.16903E-005	  5.45322E-006
  2.09715E+002	 -5.55632E-006	 -5.61379E-006	 -5.36031E-007	 -1.89034E-005
  2.35930E+002	 -7.59323E-005	 -9.38289E-005	 -4.95328E-005	 -7.33090E-005
  2.62144E+002	  1.49452E-005	  1.63959E-005	  2.27374E-005	  6.55268E-006
  2.88358E+002	 -1.21892E-005	 -3.50621E-007	  3.65560E-006	 -2.47886E-005
  3.14573E+002	  1.28176E-005	  8.39320E-006	  1.10442E-006	  2.39005E-005
  3.40787E+002	 -1.88789E-005	 -2.94064E-005	 -2.24659E-005	 -2.48082E-005
  3.67002E+002	  3.00987E-005	  2.35391E-005	  2.68125E-005	  1.52802E-005
  3.93216E+002	  2.99698E-006	  1.23334E-005	 -1.67509E-005	  1.10271E-005
  4.19430E+002	 -1.17314E-005	 -7.78644E-006	 -1.12735E-005	 -7.56328E-006
  4.71859E+002	 -8.37660E-008	  2.73676E-006	 -1.46745E-005	  1.33916E-005
  5.24288E+002	 -4.38722E-006	 -1.16919E-005	  2.96730E-006	  1.45056E-006
  5.76717E+002	  7.95936E-006	  4.60673E-006	  4.57296E-006	 -1.93885E-007
  6.29146E+002	  8.29895E-006	  8.68981E-006	  5.63719E-006	  2.46595E-005
  6.81574E+002	 -1.21785E-005	 -3.84166E-006	 -4.46926E-006	 -1.49987E-005
  7.34003E+002	 -3.45316E-005	 -2.37863E-005	 -2.20808E-005	 -4.14303E-005
  7.86432E+002	 -1.26048E-005	  5.67468E-007	 -2.34114E-005	 -3.20034E-007
  8.38861E+002	 -1.18836E-005	 -8.50622E-006	 -1.70285E-005	 -8.83117E-006
  9.43718E+002	 -3.80002E-006	 -6.53997E-006	 -6.89737E-006	 -4.41665E-006
  1.04858E+003	  2.91574E-006	  5.64920E-006	  4.51044E-006	  7.13183E-006
  1.15343E+003	 -8.25568E-006	 -1.02850E-006	  1.82477E-006	 -1.29816E-005
  1.25829E+003	  7.86686E-006	  1.69566E-005	  5.64348E-006	  1.02143E-005
  1.36315E+003	 -7.77093E-006	 -8.25487E-006	 -1.41576E-005	 -4.23198E-007
  1.46801E+003	 -1.31131E-005	 -1.20398E-005	 -1.15115E-005	 -1.96099E-005
  1.57286E+003	 -4.52088E-007	 -3.51289E-006	  1.15782E-005	 -1.82031E-005
  1.67772E+003	  8.19541E-006	  9.04766E-006	  1.41219E-005	  8.32408E-006
  1.88744E+003	  1.26517E-005	  1.29406E-005	  9.87585E-006	  1.89483E-005
  2.09715E+003	  1.50654E-006	  4.19054E-007	  1.96509E-006	  7.69562E-006
  2.30687E+003	 -1.96569E-006	 -1.64348E-006	 -1.29145E-006	 -4.55458E-006
  2.51658E+003	  1.38434E-005	  1.56442E-005	  8.56334E-006	  1.96397E-005
  2.72630E+003	  6.37049E-006	  1.86360E-006	  3.35168E-007	  4.69293E-006
  2.93601E+003	 -4.23395E-006	 -3.11613E-006	 -8.13221E-007	 -1.31159E-006
  3.14573E+003	  6.37127E-006	  9.22167E-006	 -4.26535E-006	  1.54763E-005
  3.35544E+003	  6.78311E-006	  1.37980E-005	  2.40084E-006	  8.81751E-006
  3.77487E+003	  1.20003E-006	 -1.71753E-006	 -5.00900E-006	  4.44589E-006
  4.19430E+003	  2.27700E-007	  4.00683E-006	  2.64374E-006	  2.34349E-006
  4.61373E+003	 -1.75704E-006	  7.04231E-007	 -5.33537E-006	  1.72336E-006
  5.03317E+003	  1.01003E-005	  1.56940E-005	  7.30702E-006	  1.48946E-005
  5.45260E+003	  5.30369E-006	  6.19786E-006	  7.46711E-006	  6.51610E-006
  5.87203E+003	 -7.17122E-007	  2.13994E-006	  1.90611E-006	  1.74001E-006
  6.29146E+003	 -2.52017E-006	  1.75748E-006	 -2.48494E-006	 -1.78747E-006
  6.71089E+003	  3.41692E-006	  5.01868E-006	  2.06202E-006	  3.83635E-006
  7.54975E+003	  1.20714E-005	  1.34781E-005	  1.18518E-005	  1.23387E-005
  8.38861E+003	 -9.00083E-006	 -1.05268E-005	 -1.04158E-005	 -4.76616E-006
  9.22747E+003	  6.82044E-007	  3.35574E-006	  3.37751E-007	  6.89699E-007
  1.00663E+004	 -1.33062E-006	 -5.25863E-007	 -2.10053E-006	  3.15932E-007
  1.09052E+004	  1.25611E-006	  1.11886E-006	 -1.40442E-006	  5.40793E-006
  1.17441E+004	 -8.24751E-007	  6.72559E-006	 -1.99656E-006	  7.15289E-007

"Count Rate"
       0.23438	     196.62227	     241.00488	     196.62227	     241.00488
       0.46875	     193.38412	     241.17126	     193.38412	     241.17126
       0.70313	     194.96266	     239.75058	     194.96266	     239.75058
       0.93750	     193.70836	     240.46732	     193.70836	     240.46732
       1.17188	     195.56422	     242.80527	     195.56422	     242.80527
       1.40625	     197.65045	     242.61755	     197.65045	     242.61755
       1.64063	     195.19305	     241.22673	     195.19305	     241.22673
       1.87500	     194.41231	     240.37773	     194.41231	     240.37773
       2.10938	     196.16577	     242.50237	     196.16577	     242.50237
       2.34375	     192.22795	     238.68826	     192.22795	     238.68826
       2.57813	     195.21439	     241.59363	     195.21439	     241.59363
       2.81250	     196.51988	     244.20036	     196.51988	     244.20036
       3.04688	     193.48651	     239.43060	     193.48651	     239.43060
       3.28125	     195.43623	     242.43837	     195.43623	     242.43837
       3.51563	     193.08975	     239.81030	     193.08975	     239.81030
       3.75000	     197.60779	     243.61160	     197.60779	     243.61160
       3.98438	     196.91238	     242.00746	     196.91238	     242.00746
       4.21875	     193.41399	     240.02362	     193.41399	     240.02362
       4.45313	     198.51651	     243.35136	     198.51651	     243.35136
       4.68750	     195.66234	     242.37437	     195.66234	     242.37437
       4.92188	     195.42769	     241.95627	     195.42769	     241.95627
       5.15625	     196.21269	     241.79842	     196.21269	     241.79842
       5.39063	     197.50966	     243.27884	     197.50966	     243.27884
       5.62500	     196.59666	     243.40681	     196.59666	     243.40681
       5.85938	     196.78865	     242.36157	     196.78865	     242.36157
       6.09375	     196.85692	     245.37787	     196.85692	     245.37787
       6.32813	     199.53616	     245.10481	     199.53616	     245.10481
       6.56250	     196.35776	     243.65427	     196.35776	     243.65427
       6.79688	     193.99847	     241.41872	     193.99847	     241.41872
       7.03125	     193.46945	     236.52097	     193.46945	     236.52097
       7.26563	     195.89273	     240.88115	     195.89273	     240.88115
       7.50000	     196.91664	     241.35898	     196.91664	     241.35898
       7.73438	     196.73746	     240.48012	     196.73746	     240.48012
       7.96875	     195.15465	     241.38031	     195.15465	     241.38031
       8.20313	     197.86377	     242.19092	     197.86377	     242.19092
       8.43750	     195.55142	     241.51685	     195.55142	     241.51685
       8.67188	     196.87398	     243.18924	     196.87398	     243.18924
       8.90625	     194.34831	     240.91956	     194.34831	     240.91956
       9.14063	     193.89609	     238.56454	     193.89609	     238.56454
       9.37500	     199.02847	     242.81807	     199.02847	     242.81807
       9.60938	     196.83559	     244.14063	     196.83559	     244.14063
       9.84375	     197.84244	     243.65001	     197.84244	     243.65001
      10.07813	     196.69052	     241.12860	     196.69052	     241.12860
      10.31250	     194.52324	     240.40332	     194.52324	     240.40332
      10.54688	     194.26726	     239.81883	     194.26726	     239.81883
      10.78125	     195.39357	     243.08685	     195.39357	     243.08685
      11.01563	     195.56422	     237.81366	     195.56422	     237.81366
      11.25000	     196.75452	     242.22931	     196.75452	     242.22931
      11.48438	     199.65562	     246.25246	     199.65562	     246.25246
      11.71875	     196.77159	     241.48697	     196.77159	     241.48697
      11.95313	     192.28342	     242.66875	     192.28342	     242.66875
      12.18750	     195.70500	     240.99208	     195.70500	     240.99208
      12.42188	     194.61710	     241.96480	     194.61710	     241.96480
      12.65625	     198.89622	     242.53648	     198.89622	     242.53648
      12.89063	     198.56772	     244.69952	     198.56772	     244.69952
      13.12500	     198.31174	     244.49474	     198.31174	     244.49474
      13.35938	     198.65305	     244.14490	     198.65305	     244.14490
      13.59375	     194.83467	     241.26939	     194.83467	     241.26939
      13.82813	     194.25446	     240.31799	     194.25446	     240.31799
      14.06250	     198.20081	     241.12433	     198.20081	     241.12433
      14.29688	     194.98399	     241.99040	     194.98399	     241.99040
      14.53125	     194.39951	     238.59441	     194.39951	     238.59441
      14.76563	     194.77922	     241.06035	     194.77922	     241.06035
      15.00000	     196.11884	     242.53648	     196.11884	     242.53648
      15.23438	     198.35013	     245.82156	     198.35013	     245.82156
      15.46875	     194.65123	     239.95110	     194.65123	     239.95110
      15.70313	     195.96098	     241.23526	     195.96098	     241.23526
      15.93750	     195.01813	     239.89563	     195.01813	     239.89563
      16.17188	     194.70242	     242.51515	     194.70242	     242.51515
      16.40625	     197.01050	     241.12860	     197.01050	     241.12860
      16.64063	     198.08134	     246.17993	     198.08134	     246.17993
      16.87500	     195.82019	     239.20876	     195.82019	     239.20876
      17.10938	     197.12569	     243.37270	     197.12569	     243.37270
      17.34375	     195.10345	     240.21133	     195.10345	     240.21133
      17.57813	     198.25200	     244.76352	     198.25200	     244.76352
      17.81250	     193.63583	     238.75653	     193.63583	     238.75653
      18.04688	     195.73914	     240.79156	     195.73914	     240.79156
      18.28125	     195.14185	     241.60643	     195.14185	     241.60643
      18.51563	     196.09750	     242.50662	     196.09750	     242.50662
      18.75000	     195.79886	     241.81548	     195.79886	     241.81548
      18.98438	     195.01813	     242.18665	     195.01813	     242.18665
      19.21875	     197.48833	     244.81471	     197.48833	     244.81471
      19.45313	     195.15039	     240.63797	     195.15039	     240.63797
      19.68750	     195.79886	     243.12952	     195.79886	     243.12952
      19.92188	     197.18968	     241.69603	     197.18968	     241.69603
      20.15625	     196.94225	     243.94011	     196.94225	     243.94011
      20.39063	     195.68794	     241.74295	     195.68794	     241.74295
      20.62500	     200.35530	     244.09796	     200.35530	     244.09796
      20.85938	     197.57365	     244.08090	     197.57365	     244.08090
      21.09375	     197.20676	     243.00153	     197.20676	     243.00153
      21.32813	     197.88083	     245.03656	     197.88083	     245.03656
      21.56250	     195.99939	     242.60048	     195.99939	     242.60048
      21.79688	     198.84929	     244.78911	     198.84929	     244.78911
      22.03125	     197.20676	     243.27884	     197.20676	     243.27884
      22.26563	     196.63080	     242.60048	     196.63080	     242.60048
      22.50000	     197.02757	     241.25232	     197.02757	     241.25232
      22.73438	     197.37314	     243.72253	     197.37314	     243.72253
      22.96875	     195.97806	     240.28813	     195.97806	     240.28813
      23.20313	     197.98749	     243.23618	     197.98749	     243.23618
      23.43750	     196.69479	     244.77205	     196.69479	     244.77205
      23.67188	     199.82201	     246.18420	     199.82201	     246.18420
      23.90625	     194.82614	     241.68323	     194.82614	     241.68323
      24.14063	     197.51819	     243.43242	     197.51819	     243.43242
      24.37500	     197.66751	     243.32149	     197.66751	     243.32149
      24.60938	     196.40468	     244.01263	     196.40468	     244.01263
      24.84375	     198.23921	     242.10132	     198.23921	     242.10132
      25.07813	     194.15633	     243.47935	     194.15633	     243.47935
      25.31250	     197.35181	     244.41368	     197.35181	     244.41368
      25.54688	     195.60689	     240.83423	     195.60689	     240.83423
      25.78125	     196.57108	     242.09706	     196.57108	     242.09706
      26.01563	     197.58218	     241.87521	     197.58218	     241.87521
      26.25000	     200.07373	     247.80540	     200.07373	     247.80540
      26.48438	     198.08562	     241.76428	     198.08562	     241.76428
      26.71875	     199.20766	     246.23540	     199.20766	     246.23540
      26.95313	     196.85265	     241.60216	     196.85265	     241.60216
      27.18750	     200.95259	     246.43591	     200.95259	     246.43591
      27.42188	     197.38167	     242.83513	     197.38167	     242.83513
      27.65625	     198.37146	     242.69861	     198.37146	     242.69861
      27.89063	     194.82614	     240.08762	     194.82614	     240.08762
      28.12500	     198.75116	     245.71918	     198.75116	     245.71918
      28.35938	     197.10863	     241.63629	     197.10863	     241.63629
      28.59375	     195.01385	     241.86668	     195.01385	     241.86668
      28.82813	     194.61282	     240.99208	     194.61282	     240.99208
      29.06250	     196.43881	     242.39143	     196.43881	     242.39143
      29.29688	     201.48589	     245.93675	     201.48589	     245.93675
      29.53125	     197.42007	     243.21910	     197.42007	     243.21910
      29.76563	     194.65123	     240.92809	     194.65123	     240.92809
      30.00000	     198.13681	     246.26953	     198.13681	     246.26953
      30.23438	     199.25459	     243.35989	     199.25459	     243.35989
      30.46875	     194.28859	     241.54243	     194.28859	     241.54243
      30.70313	     197.62059	     243.48788	     197.62059	     243.48788
      30.93750	     197.50966	     244.75925	     197.50966	     244.75925
      31.17188	     194.26299	     240.84703	     194.26299	     240.84703
      31.40625	     195.77327	     241.02621	     195.77327	     241.02621
      31.64063	     199.15646	     243.83772	     199.15646	     243.83772
      31.87500	     199.34418	     246.64496	     199.34418	     246.64496
      32.10938	     193.80649	     239.99376	     193.80649	     239.99376
      32.34375	     197.38167	     243.43669	     197.38167	     243.43669
      32.57813	     198.08134	     245.22427	     198.08134	     245.22427
      32.81250	     195.33383	     241.91788	     195.33383	     241.91788
      33.04688	     197.85524	     244.95551	     197.85524	     244.95551
      33.28125	     196.15724	     242.01173	     196.15724	     242.01173
      33.51563	     196.26390	     242.67728	     196.26390	     242.67728
      33.75000	     195.29117	     242.33597	     195.29117	     242.33597
      33.98438	     198.04295	     244.93417	     198.04295	     244.93417
      34.21875	     198.97728	     246.34206	     198.97728	     246.34206
      34.45313	     195.21439	     240.16869	     195.21439	     240.16869
      34.68750	     195.87566	     242.57915	     195.87566	     242.57915
      34.92188	     195.09492	     240.54411	     195.09492	     240.54411
      35.15625	     196.67346	     243.43242	     196.67346	     243.43242
      35.39063	     196.95505	     241.91360	     196.95505	     241.91360
      35.62500	     196.16577	     242.72421	     196.16577	     242.72421
      35.85938	     197.85950	     242.59195	     197.85950	     242.59195
      36.09375	     198.78529	     244.83604	     198.78529	     244.83604
      36.32813	     198.00456	     243.19351	     198.00456	     243.19351
      36.56250	     196.32362	     245.41200	     196.32362	     245.41200
      36.79688	     196.84839	     241.27792	     196.84839	     241.27792
      37.03125	     198.14961	     243.60307	     198.14961	     243.60307
      37.26563	     196.70760	     244.14490	     196.70760	     244.14490
      37.50000	     196.41322	     241.60216	     196.41322	     241.60216
      37.73438	     198.96022	     245.76610	     198.96022	     245.76610
      37.96875	     195.59834	     243.80359	     195.59834	     243.80359
      38.20313	     198.37573	     243.27884	     198.37573	     243.27884
      38.43750	     196.22549	     244.34541	     196.22549	     244.34541
      38.67188	     194.76215	     241.88374	     194.76215	     241.88374
      38.90625	     196.04631	     242.13972	     196.04631	     242.13972
      39.14063	     195.28691	     242.15253	     195.28691	     242.15253
      39.37500	     194.08807	     240.41187	     194.08807	     240.41187
      39.60938	     195.26131	     242.02454	     195.26131	     242.02454
      39.84375	     200.80754	     247.33611	     200.80754	     247.33611
      40.07813	     200.13345	     246.63643	     200.13345	     246.63643
      40.31250	     197.19823	     242.13545	     197.19823	     242.13545
      40.54688	     194.01128	     240.27107	     194.01128	     240.27107
      40.78125	     196.07617	     243.05272	     196.07617	     243.05272
      41.01563	     195.33810	     243.15085	     195.33810	     243.15085
      41.25000	     194.69815	     241.19260	     194.69815	     241.19260
      41.48438	     196.66493	     243.66280	     196.66493	     243.66280
      41.71875	     194.51897	     240.17722	     194.51897	     240.17722
      41.95313	     197.15556	     243.79932	     197.15556	     243.79932
      42.18750	     196.66919	     241.94347	     196.66919	     241.94347
      42.42188	     196.17430	     242.31891	     196.17430	     242.31891
      42.65625	     197.42007	     245.88556	     197.42007	     245.88556
      42.89063	     194.77495	     240.81290	     194.77495	     240.81290
      43.12500	     196.83984	     244.28569	     196.83984	     244.28569
      43.35938	     197.42007	     245.77463	     197.42007	     245.77463
      43.59375	     194.68962	     239.25995	     194.68962	     239.25995
      43.82813	     197.26648	     243.79932	     197.26648	     243.79932
      44.06250	     195.35516	     242.36584	     195.35516	     242.36584
      44.29688	     197.59073	     241.75575	     197.59073	     241.75575
      44.53125	     196.31935	     240.80862	     196.31935	     240.80862
      44.76563	     196.21696	     244.46060	     196.21696	     244.46060
      45.00000	     196.98917	     244.92563	     196.98917	     244.92563
      45.23438	     196.34923	     241.34619	     196.34923	     241.34619
      45.46875	     197.87230	     246.34633	     197.87230	     246.34633
      45.70313	     197.36034	     242.96312	     197.36034	     242.96312
      45.93750	     199.83908	     244.17050	     199.83908	     244.17050
      46.17188	     195.45329	     242.32744	     195.45329	     242.32744
      46.40625	     198.20508	     242.92899	     198.20508	     242.92899
      46.64063	     196.03778	     241.65337	     196.03778	     241.65337
      46.87500	     195.63248	     243.14658	     195.63248	     243.14658
      47.10938	     197.01903	     242.39996	     197.01903	     242.39996
      47.34375	     196.07617	     242.00746	     196.07617	     242.00746
      47.57813	     196.74173	     243.33003	     196.74173	     243.33003
      47.81250	     198.94742	     246.50418	     198.94742	     246.50418
      48.04688	     195.34663	     239.19170	     195.34663	     239.19170
      48.28125	     193.32013	     239.27275	     193.32013	     239.27275
      48.51563	     192.43700	     241.34192	     192.43700	     241.34192
      48.75000	     195.91832	     242.69008	     195.91832	     242.69008
      48.98438	     196.87398	     242.63461	     196.87398	     242.63461
      49.21875	     198.11975	     246.69189	     198.11975	     246.69189
      49.45313	     198.10695	     244.30702	     198.10695	     244.30702
      49.68750	     195.84579	     245.64664	     195.84579	     245.64664
      49.92188	     196.94225	     241.89655	     196.94225	     241.89655
      50.15625	     197.85524	     241.38885	     197.85524	     241.38885
      50.39063	     195.95245	     242.15253	     195.95245	     242.15253
      50.62500	     199.19913	     245.51866	     199.19913	     245.51866
      50.85938	     194.19899	     240.88969	     194.19899	     240.88969
      51.09375	     194.33551	     240.76170	     194.33551	     240.76170
      51.32813	     198.61891	     245.01523	     198.61891	     245.01523
      51.56250	     195.73486	     241.07741	     195.73486	     241.07741
      51.79688	     194.54457	     242.34877	     194.54457	     242.34877
      52.03125	     196.75452	     243.57747	     196.75452	     243.57747
      52.26563	     194.85600	     241.66615	     194.85600	     241.66615
      52.50000	     199.04980	     245.42479	     199.04980	     245.42479
      52.73438	     195.70074	     241.34619	     195.70074	     241.34619
      52.96875	     197.25795	     242.50662	     197.25795	     242.50662
      53.20313	     195.86285	     241.59790	     195.86285	     241.59790
      53.43750	     198.06429	     241.75148	     198.06429	     241.75148
      53.67188	     198.91328	     243.53908	     198.91328	     243.53908
      53.90625	     197.51819	     244.47340	     197.51819	     244.47340
      54.14063	     197.95763	     248.21071	     197.95763	     248.21071
      54.37500	     197.95335	     243.76520	     197.95335	     243.76520
      54.60938	     195.70074	     241.62349	     195.70074	     241.62349
      54.84375	     194.68962	     240.31374	     194.68962	     240.31374
      55.07813	     194.87308	     243.14230	     194.87308	     243.14230
      55.31250	     195.03946	     240.04070	     195.03946	     240.04070
      55.54688	     197.80830	     242.50237	     197.80830	     242.50237
      55.78125	     197.28355	     242.68581	     197.28355	     242.68581
      56.01563	     197.99602	     244.40514	     197.99602	     244.40514
      56.25000	     195.38503	     242.46396	     195.38503	     242.46396
      56.48438	     195.46609	     240.94514	     195.46609	     240.94514
      56.71875	     196.57108	     242.47676	     196.57108	     242.47676
      56.95313	     195.41490	     240.07909	     195.41490	     240.07909
      57.18750	     199.16074	     245.27974	     199.16074	     245.27974
      57.42188	     197.40727	     242.33597	     197.40727	     242.33597
      57.65625	     197.45847	     244.69098	     197.45847	     244.69098
      57.89063	     196.92517	     242.41277	     196.92517	     242.41277
      58.12500	     197.20676	     243.73959	     197.20676	     243.73959
      58.35938	     196.91238	     244.59712	     196.91238	     244.59712
      58.59375	     196.30229	     238.67973	     196.30229	     238.67973
      58.82813	     197.53952	     242.39143	     197.53952	     242.39143
      59.06250	     196.35349	     241.23526	     196.35349	     241.23526
      59.29688	     196.14870	     243.60735	     196.14870	     243.60735
      59.53125	     196.61374	     240.56972	     196.61374	     240.56972

Monitor Diode	 146751.76
"StandardDeviation"
  3.12500E-006	  1.33979E-002
  6.25000E-006	  1.33978E-002
  9.37500E-006	  1.33977E-002
  1.25000E-005	  1.33977E-002
  1.56250E-005	  1.33979E-002
  1.87500E-005	  1.33979E-002
  2.18750E-005	  1.33979E-002
  2.50000E-005	  1.33977E-002
  2.81250E-005	  1.33976E-002
  3.12500E-005	  1.33397E-002
  3.43750E-005	  1.33172E-002
  3.75000E-005	  1.33151E-002
  4.06250E-005	  1.33977E-002
  4.37500E-005	  1.33977E-002
  4.68750E-005	  1.33976E-002
  5.00000E-005	  9.42553E-003
  5.62500E-005	  9.36006E-003
  6.25000E-005	  9.39961E-003
  6.87500E-005	  9.42206E-003
  7.50000E-005	  9.40237E-003
  8.12500E-005	  9.41403E-003
  8.75000E-005	  9.40364E-003
  9.37500E-005	  9.37858E-003
  1.00000E-004	  6.65228E-003
  1.12500E-004	  6.65760E-003
  1.25000E-004	  6.64583E-003
  1.37500E-004	  6.63979E-003
  1.50000E-004	  6.64957E-003
  1.62500E-004	  6.65426E-003
  1.75000E-004	  6.64849E-003
  1.87500E-004	  6.62994E-003
  2.00000E-004	  4.70644E-003
  2.25000E-004	  4.71356E-003
  2.50000E-004	  4.72206E-003
  2.75000E-004	  4.71355E-003
  3.00000E-004	  4.71867E-003
  3.25000E-004	  4.69985E-003
  3.50000E-004	  4.71168E-003
  3.75000E-004	  4.70883E-003
  4.00000E-004	  3.34874E-003
  4.50000E-004	  3.34983E-003
  5.00000E-004	  3.34125E-003
  5.50000E-004	  3.34576E-003
  6.00000E-004	  3.34219E-003
  6.50000E-004	  3.33897E-003
  7.00000E-004	  3.34163E-003
  7.50000E-004	  3.33555E-003
  8.00000E-004	  2.38631E-003
  9.00000E-004	  2.38317E-003
  1.00000E-003	  2.38214E-003
  1.10000E-003	  2.38060E-003
  1.20000E-003	  2.37817E-003
  1.30000E-003	  2.37645E-003
  1.40000E-003	  2.37418E-003
  1.50000E-003	  2.37248E-003
  1.60000E-003	  1.71243E-003
  1.80000E-003	  1.70818E-003
  2.00000E-003	  1.70644E-003
  2.20000E-003	  1.70444E-003
  2.40000E-003	  1.70100E-003
  2.60000E-003	  1.69855E-003
  2.80000E-003	  1.69672E-003
  3.00000E-003	  1.69345E-003
  3.20000E-003	  1.24181E-003
  3.60000E-003	  1.23815E-003
  4.00000E-003	  1.23455E-003
  4.40000E-003	  1.23044E-003
  4.80000E-003	  1.22711E-003
  5.20000E-003	  1.22345E-003
  5.60000E-003	  1.21958E-003
  6.00000E-003	  1.21641E-003
  6.40000E-003	  9.14411E-004
  7.20000E-003	  9.08544E-004
  8.00000E-003	  9.03295E-004
  8.80000E-003	  8.98444E-004
  9.60000E-003	  8.93249E-004
  1.04000E-002	  8.88661E-004
  1.12000E-002	  8.83781E-004
  1.20000E-002	  8.79658E-004
  1.28000E-002	  6.82623E-004
  1.44000E-002	  6.74893E-004
  1.60000E-002	  6.68222E-004
  1.76000E-002	  6.61893E-004
  1.92000E-002	  6.56016E-004
  2.08000E-002	  6.50742E-004
  2.24000E-002	  6.45364E-004
  2.40000E-002	  6.41164E-004
  2.56000E-002	  5.14354E-004
  2.88000E-002	  5.06623E-004
  3.20000E-002	  5.00046E-004
  3.52000E-002	  4.94722E-004
  3.84000E-002	  4.90212E-004
  4.16000E-002	  4.86179E-004
  4.48000E-002	  4.82797E-004
  4.80000E-002	  4.80155E-004
  5.12000E-002	  3.99327E-004
  5.76000E-002	  3.95441E-004
  6.40000E-002	  3.92608E-004
  7.04000E-002	  3.90607E-004
  7.68000E-002	  3.89404E-004
  8.32000E-002	  3.88273E-004
  8.96000E-002	  3.87725E-004
  9.60000E-002	  3.87170E-004
  1.02400E-001	  3.33004E-004
  1.15200E-001	  3.32521E-004
  1.28000E-001	  3.32076E-004
  1.40800E-001	  3.31439E-004
  1.53600E-001	  3.31439E-004
  1.66400E-001	  3.31439E-004
  1.79200E-001	  3.31439E-004
  1.92000E-001	  3.31439E-004
  2.04800E-001	  2.85684E-004
  2.30400E-001	  2.85684E-004
  2.56000E-001	  2.85684E-004
  2.81600E-001	  2.85684E-004
  3.07200E-001	  2.85684E-004
  3.32800E-001	  2.85684E-004
  3.58400E-001	  2.85684E-004
  3.84000E-001	  2.85684E-004
  4.09600E-001	  2.39536E-004
  4.60800E-001	  2.39536E-004
  5.12000E-001	  2.39536E-004
  5.63200E-001	  2.39536E-004
  6.14400E-001	  2.39536E-004
  6.65600E-001	  2.39536E-004
  7.16800E-001	  2.39536E-004
  7.68000E-001	  2.39536E-004
  8.19200E-001	  1.93295E-004
  9.21600E-001	  1.93295E-004
  1.02400E+000	  1.93295E-004
  1.12640E+000	  1.93295E-004
  1.22880E+000	  1.93295E-004
  1.33120E+000	  1.93295E-004
  1.43360E+000	  1.93295E-004
  1.53600E+000	  1.93295E-004
  1.63840E+000	  1.46668E-004
  1.84320E+000	  1.46668E-004
  2.04800E+000	  1.46668E-004
  2.25280E+000	  1.46668E-004
  2.45760E+000	  1.46668E-004
  2.66240E+000	  1.46668E-004
  2.86720E+000	  1.46668E-004
  3.07200E+000	  1.46668E-004
  3.27680E+000	  1.07590E-004
  3.68640E+000	  1.07590E-004
  4.09600E+000	  1.07590E-004
  4.50560E+000	  1.07590E-004
  4.91520E+000	  1.07590E-004
  5.32480E+000	  1.07590E-004
  5.73440E+000	  1.07590E-004
  6.14400E+000	  1.07590E-004
  6.55360E+000	  7.74616E-005
  7.37280E+000	  7.74616E-005
  8.19200E+000	  7.74616E-005
  9.01120E+000	  7.74616E-005
  9.83040E+000	  7.74616E-005
  1.06496E+001	  7.74616E-005
  1.14688E+001	  7.74616E-005
  1.22880E+001	  7.74616E-005
  1.31072E+001	  5.52631E-005
  1.47456E+001	  5.52631E-005
  1.63840E+001	  5.52631E-005
  1.80224E+001	  5.52631E-005
  1.96608E+001	  5.52631E-005
  2.12992E+001	  5.52631E-005
  2.29376E+001	  5.52631E-005
  2.45760E+001	  5.52631E-005
  2.62144E+001	  3.92496E-005
  2.94912E+001	  3.92496E-005
  3.27680E+001	  3.92496E-005
  3.60448E+001	  3.92496E-005
  3.93216E+001	  3.92496E-005
  4.25984E+001	  3.92496E-005
  4.58752E+001	  3.92496E-005
  4.91520E+001	  3.92496E-005
  5.24288E+001	  2.78142E-005
  5.89824E+001	  2.78142E-005
  6.55360E+001	  2.78142E-005
  7.20896E+001	  2.78142E-005
  7.86432E+001	  2.78142E-005
  8.51968E+001	  2.78142E-005
  9.17504E+001	  2.78142E-005
  9.83040E+001	  2.78142E-005
  1.04858E+002	  1.96882E-005
  1.17965E+002	  1.96882E-005
  1.31072E+002	  1.96882E-005
  1.44179E+002	  1.96882E-005
  1.57286E+002	  1.96882E-005
  1.70394E+002	  1.96882E-005
  1.83501E+002	  1.96882E-005
  1.96608E+002	  1.96882E-005
  2.09715E+002	  1.39279E-005
  2.35930E+002	  1.39279E-005
  2.62144E+002	  1.39279E-005
  2.88358E+002	  1.39279E-005
  3.14573E+002	  1.39279E-005
  3.40787E+002	  1.39279E-005
  3.67002E+002	  1.39279E-005
  3.93216E+002	  1.39279E-005
  4.19430E+002	  9.84928E-006
  4.71859E+002	  9.84928E-006
  5.24288E+002	  9.84928E-006
  5.76717E+002	  9.84928E-006
  6.29146E+002	  9.84928E-006
  6.81574E+002	  9.84928E-006
  7.34003E+002	  9.84928E-006
  7.86432E+002	  9.84928E-006
  8.38861E+002	  6.96266E-006
  9.43718E+002	  6.96266E-006
  1.04858E+003	  6.96266E-006
  1.15343E+003	  6.96266E-006
  1.25829E+003	  6.96266E-006
  1.36315E+003	  6.96266E-006
  1.46801E+003	  6.96266E-006
  1.57286E+003	  6.96266E-006
  1.67772E+003	  4.91973E-006
  1.88744E+003	  4.91973E-006
  2.09715E+003	  4.91973E-006
  2.30687E+003	  4.91973E-006
  2.51658E+003	  4.91973E-006
  2.72630E+003	  4.91973E-006
  2.93601E+003	  4.91973E-006
  3.14573E+003	  4.91973E-006
  3.35544E+003	  3.47331E-006
  3.77487E+003	  3.47331E-006
  4.19430E+003	  3.47331E-006
  4.61373E+003	  3.47331E-006
  5.03317E+003	  3.47331E-006
  5.45260E+003	  3.47331E-006
  5.87203E+003	  3.47331E-006
  6.29146E+003	  3.47331E-006
  6.71089E+003	  2.44812E-006
  7.54975E+003	  2.44812E-006
  8.38861E+003	  2.44812E-006
  9.22747E+003	  2.44812E-006
  1.00663E+004	  2.44812E-006
  1.09052E+004	  2.44812E-006
  1.17441E+004	  2.44812E-006
